subject_no,trial,image,surface,planar,spherical,response,reaction_time,correct_ans,given_ans,size,separation,pull,spin,point_sep_rad,rotation_angle,height,line_length,curvature
1,13,Plane_0_2_.jpg,plane,line,geo,correct,3.702975988,y,y,0,2,0,NA,0.634294745014242,0,0,1.268589490028484,0
1,15,Plane_0_0_.jpg,plane,line,geo,correct,3.66961813,y,y,0,0,0,NA,0.34906585039886595,0,0,0.6981317007977319,0
1,30,Plane_0_6_.jpg,plane,line,geo,correct,14.16930485,y,y,0,6,0,NA,2.094395102393195,0,0,4.18879020478639,0
1,40,Plane_0_4_.jpg,plane,line,geo,correct,9.636343002,y,y,0,4,0,NA,1.1525900430905907,0,0,2.3051800861811813,0
1,41,Plane_0_3_.jpg,plane,line,geo,correct,4.836330175,y,y,0,3,0,NA,0.8550332201079094,0,0,1.7100664402158188,0
1,46,Plane_0_5_.jpg,plane,line,geo,correct,21.10306501,y,y,0,5,0,NA,1.5536984718136575,0,0,3.107396943627315,0
1,51,Plane_0_1_.jpg,plane,line,geo,correct,4.236304045,y,y,0,1,0,NA,0.47054291469740406,0,0,0.9410858293948081,0
2,9,Plane_0_3_.jpg,plane,line,geo,correct,4.417089939,y,y,0,3,0,NA,0.8550332201079094,0,0,1.7100664402158188,0
2,20,Plane_0_4_.jpg,plane,line,geo,correct,3.917007923,y,y,0,4,0,NA,1.1525900430905907,0,0,2.3051800861811813,0
2,26,Plane_0_6_.jpg,plane,line,geo,correct,4.294249058,y,y,0,6,0,NA,2.094395102393195,0,0,4.18879020478639,0
2,27,Plane_0_2_.jpg,plane,line,geo,correct,4.42790699,y,y,0,2,0,NA,0.634294745014242,0,0,1.268589490028484,0
2,35,Plane_0_1_.jpg,plane,line,geo,correct,4.13258481,y,y,0,1,0,NA,0.47054291469740406,0,0,0.9410858293948081,0
2,37,Plane_0_0_.jpg,plane,line,geo,correct,4.299131155,y,y,0,0,0,NA,0.34906585039886595,0,0,0.6981317007977319,0
2,49,Plane_0_5_.jpg,plane,line,geo,correct,3.979780197,y,y,0,5,0,NA,1.5536984718136575,0,0,3.107396943627315,0
3,1,Plane_0_2_.jpg,plane,line,geo,correct,3.236251116,y,y,0,2,0,NA,0.634294745014242,0,0,1.268589490028484,0
3,11,Plane_0_3_.jpg,plane,line,geo,correct,2.53627491,y,y,0,3,0,NA,0.8550332201079094,0,0,1.7100664402158188,0
3,27,Plane_0_5_.jpg,plane,line,geo,correct,3.236171007,y,y,0,5,0,NA,1.5536984718136575,0,0,3.107396943627315,0
3,30,Plane_0_1_.jpg,plane,line,geo,correct,4.269619942,y,y,0,1,0,NA,0.47054291469740406,0,0,0.9410858293948081,0
3,31,Plane_0_4_.jpg,plane,line,geo,correct,5.069685936,y,y,0,4,0,NA,1.1525900430905907,0,0,2.3051800861811813,0
3,47,Plane_0_0_.jpg,plane,line,geo,correct,10.2364099,y,y,0,0,0,NA,0.34906585039886595,0,0,0.6981317007977319,0
3,49,Plane_0_6_.jpg,plane,line,geo,correct,3.902889013,y,y,0,6,0,NA,2.094395102393195,0,0,4.18879020478639,0
4,7,Plane_0_3_.jpg,plane,line,geo,correct,4.759958029,y,y,0,3,0,NA,0.8550332201079094,0,0,1.7100664402158188,0
4,12,Plane_0_4_.jpg,plane,line,geo,correct,9.431226015,y,y,0,4,0,NA,1.1525900430905907,0,0,2.3051800861811813,0
4,21,Plane_0_1_.jpg,plane,line,geo,incorrect,6.462975025,y,n,0,1,0,NA,0.47054291469740406,0,0,0.9410858293948081,0
4,34,Plane_0_0_.jpg,plane,line,geo,correct,4.151968002,y,y,0,0,0,NA,0.34906585039886595,0,0,0.6981317007977319,0
4,41,Plane_0_2_.jpg,plane,line,geo,correct,4.442791939,y,y,0,2,0,NA,0.634294745014242,0,0,1.268589490028484,0
4,43,Plane_0_5_.jpg,plane,line,geo,correct,5.969192982,y,y,0,5,0,NA,1.5536984718136575,0,0,3.107396943627315,0
4,51,Plane_0_6_.jpg,plane,line,geo,correct,3.703167915,y,y,0,6,0,NA,2.094395102393195,0,0,4.18879020478639,0
7,3,Plane_0_6_.jpg,plane,line,geo,correct,6.793097019,y,y,0,6,0,NA,2.094395102393195,0,0,4.18879020478639,0
7,11,Plane_0_4_.jpg,plane,line,geo,correct,2.497864962,y,y,0,4,0,NA,1.1525900430905907,0,0,2.3051800861811813,0
7,13,Plane_0_5_.jpg,plane,line,geo,correct,2.258497953,y,y,0,5,0,NA,1.5536984718136575,0,0,3.107396943627315,0
7,16,Plane_0_0_.jpg,plane,line,geo,correct,3.681192875,y,y,0,0,0,NA,0.34906585039886595,0,0,0.6981317007977319,0
7,24,Plane_0_2_.jpg,plane,line,geo,correct,10.36620712,y,y,0,2,0,NA,0.634294745014242,0,0,1.268589490028484,0
7,25,Plane_0_3_.jpg,plane,line,geo,correct,14.69201803,y,y,0,3,0,NA,0.8550332201079094,0,0,1.7100664402158188,0
7,34,Plane_0_1_.jpg,plane,line,geo,correct,1.622430086,y,y,0,1,0,NA,0.47054291469740406,0,0,0.9410858293948081,0
9,27,Plane_0_5_.jpg,plane,line,geo,correct,2.270700216,y,y,0,5,0,NA,1.5536984718136575,0,0,3.107396943627315,0
9,28,Plane_0_1_.jpg,plane,line,geo,correct,2.433650017,y,y,0,1,0,NA,0.47054291469740406,0,0,0.9410858293948081,0
9,35,Plane_0_6_.jpg,plane,line,geo,correct,4.954685926,y,y,0,6,0,NA,2.094395102393195,0,0,4.18879020478639,0
9,41,Plane_0_2_.jpg,plane,line,geo,correct,2.3821539879999998,y,y,0,2,0,NA,0.634294745014242,0,0,1.268589490028484,0
9,45,Plane_0_4_.jpg,plane,line,geo,correct,4.201025009,y,y,0,4,0,NA,1.1525900430905907,0,0,2.3051800861811813,0
9,46,Plane_0_0_.jpg,plane,line,geo,correct,3.399065018,y,y,0,0,0,NA,0.34906585039886595,0,0,0.6981317007977319,0
9,51,Plane_0_3_.jpg,plane,line,geo,correct,5.175219774,y,y,0,3,0,NA,0.8550332201079094,0,0,1.7100664402158188,0
10,1,Plane_0_2_.jpg,plane,line,geo,correct,3.736222029,y,y,0,2,0,NA,0.634294745014242,0,0,1.268589490028484,0
10,14,Plane_0_6_.jpg,plane,line,geo,correct,2.13381505,y,y,0,6,0,NA,2.094395102393195,0,0,4.18879020478639,0
10,26,Plane_0_4_.jpg,plane,line,geo,correct,2.069638968,y,y,0,4,0,NA,1.1525900430905907,0,0,2.3051800861811813,0
10,32,Plane_0_5_.jpg,plane,line,geo,correct,1.869588137,y,y,0,5,0,NA,1.5536984718136575,0,0,3.107396943627315,0
10,39,Plane_0_3_.jpg,plane,line,geo,correct,1.936367989,y,y,0,3,0,NA,0.8550332201079094,0,0,1.7100664402158188,0
10,40,Plane_0_0_.jpg,plane,line,geo,correct,2.069606066,y,y,0,0,0,NA,0.34906585039886595,0,0,0.6981317007977319,0
10,49,Plane_0_1_.jpg,plane,line,geo,correct,2.002898216,y,y,0,1,0,NA,0.47054291469740406,0,0,0.9410858293948081,0
11,3,Plane_0_6_.jpg,plane,line,geo,correct,2.809056997,y,y,0,6,0,NA,2.094395102393195,0,0,4.18879020478639,0
11,15,Plane_0_3_.jpg,plane,line,geo,correct,2.460180998,y,y,0,3,0,NA,0.8550332201079094,0,0,1.7100664402158188,0
11,28,Plane_0_0_.jpg,plane,line,geo,correct,3.138550997,y,y,0,0,0,NA,0.34906585039886595,0,0,0.6981317007977319,0
11,29,Plane_0_4_.jpg,plane,line,geo,correct,2.660109997,y,y,0,4,0,NA,1.1525900430905907,0,0,2.3051800861811813,0
11,30,Plane_0_5_.jpg,plane,line,geo,correct,2.337862015,y,y,0,5,0,NA,1.5536984718136575,0,0,3.107396943627315,0
11,37,Plane_0_1_.jpg,plane,line,geo,correct,2.81019187,y,y,0,1,0,NA,0.47054291469740406,0,0,0.9410858293948081,0
11,49,Plane_0_2_.jpg,plane,line,geo,correct,2.588219881,y,y,0,2,0,NA,0.634294745014242,0,0,1.268589490028484,0
12,10,Plane_0_6_.jpg,plane,line,geo,correct,1.369506836,y,y,0,6,0,NA,2.094395102393195,0,0,4.18879020478639,0
12,11,Plane_0_4_.jpg,plane,line,geo,correct,1.900493145,y,y,0,4,0,NA,1.1525900430905907,0,0,2.3051800861811813,0
12,20,Plane_0_1_.jpg,plane,line,geo,correct,1.603309155,y,y,0,1,0,NA,0.47054291469740406,0,0,0.9410858293948081,0
12,31,Plane_0_3_.jpg,plane,line,geo,correct,1.802943945,y,y,0,3,0,NA,0.8550332201079094,0,0,1.7100664402158188,0
12,39,Plane_0_5_.jpg,plane,line,geo,correct,1.602544069,y,y,0,5,0,NA,1.5536984718136575,0,0,3.107396943627315,0
12,44,Plane_0_2_.jpg,plane,line,geo,correct,1.736263037,y,y,0,2,0,NA,0.634294745014242,0,0,1.268589490028484,0
12,50,Plane_0_0_.jpg,plane,line,geo,correct,1.436085939,y,y,0,0,0,NA,0.34906585039886595,0,0,0.6981317007977319,0
13,17,Plane_0_3_.jpg,plane,line,geo,correct,3.029501915,y,y,0,3,0,NA,0.8550332201079094,0,0,1.7100664402158188,0
13,18,Plane_0_1_.jpg,plane,line,geo,correct,2.892843008,y,y,0,1,0,NA,0.47054291469740406,0,0,0.9410858293948081,0
13,20,Plane_0_2_.jpg,plane,line,geo,correct,3.322646856,y,y,0,2,0,NA,0.634294745014242,0,0,1.268589490028484,0
13,28,Plane_0_0_.jpg,plane,line,geo,correct,3.247318029,y,y,0,0,0,NA,0.34906585039886595,0,0,0.6981317007977319,0
13,33,Plane_0_4_.jpg,plane,line,geo,correct,3.150318861,y,y,0,4,0,NA,1.1525900430905907,0,0,2.3051800861811813,0
13,37,Plane_0_6_.jpg,plane,line,geo,correct,3.470170975,y,y,0,6,0,NA,2.094395102393195,0,0,4.18879020478639,0
13,52,Plane_0_5_.jpg,plane,line,geo,correct,3.431166172,y,y,0,5,0,NA,1.5536984718136575,0,0,3.107396943627315,0
14,6,Plane_0_1_.jpg,plane,line,geo,correct,1.802947998,y,y,0,1,0,NA,0.47054291469740406,0,0,0.9410858293948081,0
14,7,Plane_0_5_.jpg,plane,line,geo,correct,1.869577885,y,y,0,5,0,NA,1.5536984718136575,0,0,3.107396943627315,0
14,21,Plane_0_0_.jpg,plane,line,geo,correct,1.702950001,y,y,0,0,0,NA,0.34906585039886595,0,0,0.6981317007977319,0
14,40,Plane_0_2_.jpg,plane,line,geo,correct,1.669548035,y,y,0,2,0,NA,0.634294745014242,0,0,1.268589490028484,0
14,50,Plane_0_4_.jpg,plane,line,geo,correct,1.936326981,y,y,0,4,0,NA,1.1525900430905907,0,0,2.3051800861811813,0
14,51,Plane_0_3_.jpg,plane,line,geo,correct,1.736238003,y,y,0,3,0,NA,0.8550332201079094,0,0,1.7100664402158188,0
14,56,Plane_0_6_.jpg,plane,line,geo,correct,2.536231995,y,y,0,6,0,NA,2.094395102393195,0,0,4.18879020478639,0
16,13,Plane_0_4_.jpg,plane,line,geo,correct,3.610900164,y,y,0,4,0,NA,1.1525900430905907,0,0,2.3051800861811813,0
16,20,Plane_0_2_.jpg,plane,line,geo,correct,2.006011009,y,y,0,2,0,NA,0.634294745014242,0,0,1.268589490028484,0
16,21,Plane_0_5_.jpg,plane,line,geo,correct,1.617325068,y,y,0,5,0,NA,1.5536984718136575,0,0,3.107396943627315,0
16,32,Plane_0_6_.jpg,plane,line,geo,correct,1.472789049,y,y,0,6,0,NA,2.094395102393195,0,0,4.18879020478639,0
16,39,Plane_0_0_.jpg,plane,line,geo,correct,1.754993916,y,y,0,0,0,NA,0.34906585039886595,0,0,0.6981317007977319,0
16,45,Plane_0_3_.jpg,plane,line,geo,correct,1.687352896,y,y,0,3,0,NA,0.8550332201079094,0,0,1.7100664402158188,0
16,49,Plane_0_1_.jpg,plane,line,geo,correct,3.662384033,y,y,0,1,0,NA,0.47054291469740406,0,0,0.9410858293948081,0
19,2,Plane_0_1_.jpg,plane,line,geo,correct,4.269683838,y,y,0,1,0,NA,0.47054291469740406,0,0,0.9410858293948081,0
19,9,Plane_0_3_.jpg,plane,line,geo,correct,2.936366081,y,y,0,3,0,NA,0.8550332201079094,0,0,1.7100664402158188,0
19,27,Plane_0_0_.jpg,plane,line,geo,correct,1.36964798,y,y,0,0,0,NA,0.34906585039886595,0,0,0.6981317007977319,0
19,32,Plane_0_4_.jpg,plane,line,geo,correct,1.536251068,y,y,0,4,0,NA,1.1525900430905907,0,0,2.3051800861811813,0
19,34,Plane_0_6_.jpg,plane,line,geo,correct,1.436243057,y,y,0,6,0,NA,2.094395102393195,0,0,4.18879020478639,0
19,35,Plane_0_5_.jpg,plane,line,geo,correct,1.602916956,y,y,0,5,0,NA,1.5536984718136575,0,0,3.107396943627315,0
19,42,Plane_0_2_.jpg,plane,line,geo,correct,1.802878857,y,y,0,2,0,NA,0.634294745014242,0,0,1.268589490028484,0
20,5,Plane_0_3_.jpg,plane,line,geo,correct,1.500500917,y,y,0,3,0,NA,0.8550332201079094,0,0,1.7100664402158188,0
20,17,Plane_0_5_.jpg,plane,line,geo,correct,1.502928972,y,y,0,5,0,NA,1.5536984718136575,0,0,3.107396943627315,0
20,22,Plane_0_2_.jpg,plane,line,geo,correct,1.436328888,y,y,0,2,0,NA,0.634294745014242,0,0,1.268589490028484,0
20,24,Plane_0_0_.jpg,plane,line,geo,correct,1.236078978,y,y,0,0,0,NA,0.34906585039886595,0,0,0.6981317007977319,0
20,32,Plane_0_4_.jpg,plane,line,geo,correct,1.402921915,y,y,0,4,0,NA,1.1525900430905907,0,0,2.3051800861811813,0
20,48,Plane_0_6_.jpg,plane,line,geo,correct,1.436187029,y,y,0,6,0,NA,2.094395102393195,0,0,4.18879020478639,0
20,55,Plane_0_1_.jpg,plane,line,geo,correct,1.402934074,y,y,0,1,0,NA,0.47054291469740406,0,0,0.9410858293948081,0
22,5,Plane_0_3_.jpg,plane,line,geo,correct,3.869626045,y,y,0,3,0,NA,0.8550332201079094,0,0,1.7100664402158188,0
22,20,Plane_0_6_.jpg,plane,line,geo,correct,2.735975981,y,y,0,6,0,NA,2.094395102393195,0,0,4.18879020478639,0
22,26,Plane_0_5_.jpg,plane,line,geo,correct,3.302849054,y,y,0,5,0,NA,1.5536984718136575,0,0,3.107396943627315,0
22,27,Plane_0_4_.jpg,plane,line,geo,correct,3.435913086,y,y,0,4,0,NA,1.1525900430905907,0,0,2.3051800861811813,0
22,34,Plane_0_2_.jpg,plane,line,geo,correct,3.169476032,y,y,0,2,0,NA,0.634294745014242,0,0,1.268589490028484,0
22,42,Plane_0_1_.jpg,plane,line,geo,correct,3.16952014,y,y,0,1,0,NA,0.47054291469740406,0,0,0.9410858293948081,0
22,46,Plane_0_0_.jpg,plane,line,geo,correct,2.969717026,y,y,0,0,0,NA,0.34906585039886595,0,0,0.6981317007977319,0
23,20,Plane_0_1_.jpg,plane,line,geo,correct,2.469636202,y,y,0,1,0,NA,0.47054291469740406,0,0,0.9410858293948081,0
23,22,Plane_0_4_.jpg,plane,line,geo,correct,2.869938135,y,y,0,4,0,NA,1.1525900430905907,0,0,2.3051800861811813,0
23,30,Plane_0_0_.jpg,plane,line,geo,correct,2.019323111,y,y,0,0,0,NA,0.34906585039886595,0,0,0.6981317007977319,0
23,31,Plane_0_6_.jpg,plane,line,geo,correct,1.902853966,y,y,0,6,0,NA,2.094395102393195,0,0,4.18879020478639,0
23,35,Plane_0_3_.jpg,plane,line,geo,correct,2.567112207,y,y,0,3,0,NA,0.8550332201079094,0,0,1.7100664402158188,0
23,40,Plane_0_2_.jpg,plane,line,geo,correct,2.452754021,y,y,0,2,0,NA,0.634294745014242,0,0,1.268589490028484,0
23,53,Plane_0_5_.jpg,plane,line,geo,correct,4.486229897,y,y,0,5,0,NA,1.5536984718136575,0,0,3.107396943627315,0
24,4,Plane_0_3_.jpg,plane,line,geo,correct,1.967103958,y,y,0,3,0,NA,0.8550332201079094,0,0,1.7100664402158188,0
24,16,Plane_0_4_.jpg,plane,line,geo,correct,2.069750786,y,y,0,4,0,NA,1.1525900430905907,0,0,2.3051800861811813,0
24,32,Plane_0_1_.jpg,plane,line,geo,correct,1.436235905,y,y,0,1,0,NA,0.47054291469740406,0,0,0.9410858293948081,0
24,40,Plane_0_2_.jpg,plane,line,geo,correct,1.169641018,y,y,0,2,0,NA,0.634294745014242,0,0,1.268589490028484,0
24,43,Plane_0_6_.jpg,plane,line,geo,correct,1.969662905,y,y,0,6,0,NA,2.094395102393195,0,0,4.18879020478639,0
24,45,Plane_0_5_.jpg,plane,line,geo,correct,1.536238909,y,y,0,5,0,NA,1.5536984718136575,0,0,3.107396943627315,0
24,54,Plane_0_0_.jpg,plane,line,geo,correct,1.602959156,y,y,0,0,0,NA,0.34906585039886595,0,0,0.6981317007977319,0
25,1,Plane_0_3_.jpg,plane,line,geo,correct,3.836197853,y,y,0,3,0,NA,0.8550332201079094,0,0,1.7100664402158188,0
25,4,Plane_0_4_.jpg,plane,line,geo,correct,4.069850922,y,y,0,4,0,NA,1.1525900430905907,0,0,2.3051800861811813,0
25,12,Plane_0_1_.jpg,plane,line,geo,correct,3.369424105,y,y,0,1,0,NA,0.47054291469740406,0,0,0.9410858293948081,0
25,25,Plane_0_6_.jpg,plane,line,geo,correct,2.402926922,y,y,0,6,0,NA,2.094395102393195,0,0,4.18879020478639,0
25,35,Plane_0_0_.jpg,plane,line,geo,correct,2.602803946,y,y,0,0,0,NA,0.34906585039886595,0,0,0.6981317007977319,0
25,41,Plane_0_2_.jpg,plane,line,geo,correct,2.969602108,y,y,0,2,0,NA,0.634294745014242,0,0,1.268589490028484,0
25,51,Plane_0_5_.jpg,plane,line,geo,correct,1.836244106,y,y,0,5,0,NA,1.5536984718136575,0,0,3.107396943627315,0
26,5,Plane_0_5_.jpg,plane,line,geo,correct,2.769490004,y,y,0,5,0,NA,1.5536984718136575,0,0,3.107396943627315,0
26,7,Plane_0_4_.jpg,plane,line,geo,correct,2.802898884,y,y,0,4,0,NA,1.1525900430905907,0,0,2.3051800861811813,0
26,9,Plane_0_6_.jpg,plane,line,geo,correct,2.002799034,y,y,0,6,0,NA,2.094395102393195,0,0,4.18879020478639,0
26,18,Plane_0_2_.jpg,plane,line,geo,correct,2.536174059,y,y,0,2,0,NA,0.634294745014242,0,0,1.268589490028484,0
26,20,Plane_0_1_.jpg,plane,line,geo,correct,3.202915192,y,y,0,1,0,NA,0.47054291469740406,0,0,0.9410858293948081,0
26,26,Plane_0_0_.jpg,plane,line,geo,correct,2.536180973,y,y,0,0,0,NA,0.34906585039886595,0,0,0.6981317007977319,0
26,43,Plane_0_3_.jpg,plane,line,geo,correct,2.436142921,y,y,0,3,0,NA,0.8550332201079094,0,0,1.7100664402158188,0
27,4,Plane_0_1_.jpg,plane,line,geo,correct,2.169877052,y,y,0,1,0,NA,0.47054291469740406,0,0,0.9410858293948081,0
27,7,Plane_0_0_.jpg,plane,line,geo,correct,1.769505978,y,y,0,0,0,NA,0.34906585039886595,0,0,0.6981317007977319,0
27,10,Plane_0_2_.jpg,plane,line,geo,correct,1.736040115,y,y,0,2,0,NA,0.634294745014242,0,0,1.268589490028484,0
27,14,Plane_0_5_.jpg,plane,line,geo,correct,1.702933073,y,y,0,5,0,NA,1.5536984718136575,0,0,3.107396943627315,0
27,15,Plane_0_6_.jpg,plane,line,geo,correct,2.070054054,y,y,0,6,0,NA,2.094395102393195,0,0,4.18879020478639,0
27,30,Plane_0_4_.jpg,plane,line,geo,correct,1.836277008,y,y,0,4,0,NA,1.1525900430905907,0,0,2.3051800861811813,0
27,41,Plane_0_3_.jpg,plane,line,geo,correct,1.533836126,y,y,0,3,0,NA,0.8550332201079094,0,0,1.7100664402158188,0
29,3,Plane_0_5_.jpg,plane,line,geo,correct,2.569432974,y,y,0,5,0,NA,1.5536984718136575,0,0,3.107396943627315,0
29,10,Plane_0_6_.jpg,plane,line,geo,correct,1.936308861,y,y,0,6,0,NA,2.094395102393195,0,0,4.18879020478639,0
29,15,Plane_0_3_.jpg,plane,line,geo,correct,1.936226845,y,y,0,3,0,NA,0.8550332201079094,0,0,1.7100664402158188,0
29,37,Plane_0_2_.jpg,plane,line,geo,correct,1.733896017,y,y,0,2,0,NA,0.634294745014242,0,0,1.268589490028484,0
29,42,Plane_0_0_.jpg,plane,line,geo,correct,1.736139059,y,y,0,0,0,NA,0.34906585039886595,0,0,0.6981317007977319,0
29,53,Plane_0_4_.jpg,plane,line,geo,correct,2.202634096,y,y,0,4,0,NA,1.1525900430905907,0,0,2.3051800861811813,0
29,56,Plane_0_1_.jpg,plane,line,geo,correct,2.036095142,y,y,0,1,0,NA,0.47054291469740406,0,0,0.9410858293948081,0
31,2,Plane_0_1_.jpg,plane,line,geo,correct,2.502993107,y,y,0,1,0,NA,0.47054291469740406,0,0,0.9410858293948081,0
31,6,Plane_0_0_.jpg,plane,line,geo,correct,6.102935076,y,y,0,0,0,NA,0.34906585039886595,0,0,0.6981317007977319,0
31,13,Plane_0_6_.jpg,plane,line,geo,correct,4.303038836,y,y,0,6,0,NA,2.094395102393195,0,0,4.18879020478639,0
31,35,Plane_0_3_.jpg,plane,line,geo,correct,1.802834034,y,y,0,3,0,NA,0.8550332201079094,0,0,1.7100664402158188,0
31,37,Plane_0_4_.jpg,plane,line,geo,correct,1.902817011,y,y,0,4,0,NA,1.1525900430905907,0,0,2.3051800861811813,0
31,44,Plane_0_5_.jpg,plane,line,geo,correct,3.069499016,y,y,0,5,0,NA,1.5536984718136575,0,0,3.107396943627315,0
31,54,Plane_0_2_.jpg,plane,line,geo,correct,2.736147165,y,y,0,2,0,NA,0.634294745014242,0,0,1.268589490028484,0
32,8,Plane_0_4_.jpg,plane,line,geo,correct,2.902844906,y,y,0,4,0,NA,1.1525900430905907,0,0,2.3051800861811813,0
32,18,Plane_0_2_.jpg,plane,line,geo,correct,2.836236954,y,y,0,2,0,NA,0.634294745014242,0,0,1.268589490028484,0
32,25,Plane_0_3_.jpg,plane,line,geo,correct,3.069469213,y,y,0,3,0,NA,0.8550332201079094,0,0,1.7100664402158188,0
32,26,Plane_0_1_.jpg,plane,line,geo,correct,3.302925825,y,y,0,1,0,NA,0.47054291469740406,0,0,0.9410858293948081,0
32,28,Plane_0_6_.jpg,plane,line,geo,correct,3.102876902,y,y,0,6,0,NA,2.094395102393195,0,0,4.18879020478639,0
32,46,Plane_0_5_.jpg,plane,line,geo,correct,3.002899885,y,y,0,5,0,NA,1.5536984718136575,0,0,3.107396943627315,0
32,52,Plane_0_0_.jpg,plane,line,geo,correct,2.769567013,y,y,0,0,0,NA,0.34906585039886595,0,0,0.6981317007977319,0
33,6,Plane_0_0_.jpg,plane,line,geo,correct,1.936013937,y,y,0,0,0,NA,0.34906585039886595,0,0,0.6981317007977319,0
33,8,Plane_0_2_.jpg,plane,line,geo,correct,2.336264849,y,y,0,2,0,NA,0.634294745014242,0,0,1.268589490028484,0
33,9,Plane_0_6_.jpg,plane,line,geo,correct,2.336374998,y,y,0,6,0,NA,2.094395102393195,0,0,4.18879020478639,0
33,11,Plane_0_4_.jpg,plane,line,geo,correct,2.536344051,y,y,0,4,0,NA,1.1525900430905907,0,0,2.3051800861811813,0
33,33,Plane_0_3_.jpg,plane,line,geo,correct,1.569527149,y,y,0,3,0,NA,0.8550332201079094,0,0,1.7100664402158188,0
33,39,Plane_0_1_.jpg,plane,line,geo,correct,1.902901888,y,y,0,1,0,NA,0.47054291469740406,0,0,0.9410858293948081,0
33,52,Plane_0_5_.jpg,plane,line,geo,correct,1.436224937,y,y,0,5,0,NA,1.5536984718136575,0,0,3.107396943627315,0
36,9,Plane_0_5_.jpg,plane,line,geo,correct,2.993077993,y,y,0,5,0,NA,1.5536984718136575,0,0,3.107396943627315,0
36,11,Plane_0_3_.jpg,plane,line,geo,correct,1.404245853,y,y,0,3,0,NA,0.8550332201079094,0,0,1.7100664402158188,0
36,12,Plane_0_1_.jpg,plane,line,geo,correct,1.786570072,y,y,0,1,0,NA,0.47054291469740406,0,0,0.9410858293948081,0
36,13,Plane_0_0_.jpg,plane,line,geo,correct,1.43155098,y,y,0,0,0,NA,0.34906585039886595,0,0,0.6981317007977319,0
36,27,Plane_0_4_.jpg,plane,line,geo,correct,1.947005033,y,y,0,4,0,NA,1.1525900430905907,0,0,2.3051800861811813,0
36,43,Plane_0_2_.jpg,plane,line,geo,correct,1.705003023,y,y,0,2,0,NA,0.634294745014242,0,0,1.268589490028484,0
36,56,Plane_0_6_.jpg,plane,line,geo,correct,1.939099073,y,y,0,6,0,NA,2.094395102393195,0,0,4.18879020478639,0
37,4,Plane_0_5_.jpg,plane,line,geo,correct,6.707388878,y,y,0,5,0,NA,1.5536984718136575,0,0,3.107396943627315,0
37,15,Plane_0_1_.jpg,plane,line,geo,correct,3.562333107,y,y,0,1,0,NA,0.47054291469740406,0,0,0.9410858293948081,0
37,29,Plane_0_2_.jpg,plane,line,geo,correct,3.839246988,y,y,0,2,0,NA,0.634294745014242,0,0,1.268589490028484,0
37,31,Plane_0_3_.jpg,plane,line,geo,correct,3.024512053,y,y,0,3,0,NA,0.8550332201079094,0,0,1.7100664402158188,0
37,37,Plane_0_4_.jpg,plane,line,geo,correct,3.134797096,y,y,0,4,0,NA,1.1525900430905907,0,0,2.3051800861811813,0
37,41,Plane_0_6_.jpg,plane,line,geo,correct,2.834059954,y,y,0,6,0,NA,2.094395102393195,0,0,4.18879020478639,0
37,44,Plane_0_0_.jpg,plane,line,geo,correct,2.711437941,y,y,0,0,0,NA,0.34906585039886595,0,0,0.6981317007977319,0
38,18,Plane_0_4_.jpg,plane,line,geo,correct,3.478292942,y,y,0,4,0,NA,1.1525900430905907,0,0,2.3051800861811813,0
38,21,Plane_0_1_.jpg,plane,line,geo,correct,3.064221859,y,y,0,1,0,NA,0.47054291469740406,0,0,0.9410858293948081,0
38,33,Plane_0_0_.jpg,plane,line,geo,correct,4.895260096,y,y,0,0,0,NA,0.34906585039886595,0,0,0.6981317007977319,0
38,36,Plane_0_5_.jpg,plane,line,geo,correct,2.212970972,y,y,0,5,0,NA,1.5536984718136575,0,0,3.107396943627315,0
38,42,Plane_0_2_.jpg,plane,line,geo,correct,4.797092915,y,y,0,2,0,NA,0.634294745014242,0,0,1.268589490028484,0
38,49,Plane_0_6_.jpg,plane,line,geo,correct,2.281425953,y,y,0,6,0,NA,2.094395102393195,0,0,4.18879020478639,0
38,56,Plane_0_3_.jpg,plane,line,geo,correct,2.366924047,y,y,0,3,0,NA,0.8550332201079094,0,0,1.7100664402158188,0
39,7,Plane_0_6_.jpg,plane,line,geo,correct,2.502933979,y,y,0,6,0,NA,2.094395102393195,0,0,4.18879020478639,0
39,11,Plane_0_0_.jpg,plane,line,geo,correct,1.936257124,y,y,0,0,0,NA,0.34906585039886595,0,0,0.6981317007977319,0
39,28,Plane_0_2_.jpg,plane,line,geo,correct,2.036186934,y,y,0,2,0,NA,0.634294745014242,0,0,1.268589490028484,0
39,36,Plane_0_4_.jpg,plane,line,geo,correct,1.869601011,y,y,0,4,0,NA,1.1525900430905907,0,0,2.3051800861811813,0
39,42,Plane_0_5_.jpg,plane,line,geo,correct,2.269591808,y,y,0,5,0,NA,1.5536984718136575,0,0,3.107396943627315,0
39,45,Plane_0_1_.jpg,plane,line,geo,correct,2.269668102,y,y,0,1,0,NA,0.47054291469740406,0,0,0.9410858293948081,0
39,46,Plane_0_3_.jpg,plane,line,geo,correct,2.30294013,y,y,0,3,0,NA,0.8550332201079094,0,0,1.7100664402158188,0
40,1,Plane_0_0_.jpg,plane,line,geo,correct,3.802894115,y,y,0,0,0,NA,0.34906585039886595,0,0,0.6981317007977319,0
40,3,Plane_0_2_.jpg,plane,line,geo,correct,4.202785969,y,y,0,2,0,NA,0.634294745014242,0,0,1.268589490028484,0
40,12,Plane_0_3_.jpg,plane,line,geo,correct,4.869889975,y,y,0,3,0,NA,0.8550332201079094,0,0,1.7100664402158188,0
40,22,Plane_0_1_.jpg,plane,line,geo,correct,2.302917004,y,y,0,1,0,NA,0.47054291469740406,0,0,0.9410858293948081,0
40,27,Plane_0_5_.jpg,plane,line,geo,correct,2.236415148,y,y,0,5,0,NA,1.5536984718136575,0,0,3.107396943627315,0
40,38,Plane_0_6_.jpg,plane,line,geo,correct,2.569638968,y,y,0,6,0,NA,2.094395102393195,0,0,4.18879020478639,0
40,44,Plane_0_4_.jpg,plane,line,geo,correct,3.502669096,y,y,0,4,0,NA,1.1525900430905907,0,0,2.3051800861811813,0
41,1,Plane_0_6_.jpg,plane,line,geo,correct,3.236140966,y,y,0,6,0,NA,2.094395102393195,0,0,4.18879020478639,0
41,2,Plane_0_2_.jpg,plane,line,geo,correct,3.769866943,y,y,0,2,0,NA,0.634294745014242,0,0,1.268589490028484,0
41,7,Plane_0_4_.jpg,plane,line,geo,correct,2.202658892,y,y,0,4,0,NA,1.1525900430905907,0,0,2.3051800861811813,0
41,19,Plane_0_5_.jpg,plane,line,geo,correct,2.23613286,y,y,0,5,0,NA,1.5536984718136575,0,0,3.107396943627315,0
41,27,Plane_0_3_.jpg,plane,line,geo,correct,2.469543934,y,y,0,3,0,NA,0.8550332201079094,0,0,1.7100664402158188,0
41,37,Plane_0_1_.jpg,plane,line,geo,correct,1.869606972,y,y,0,1,0,NA,0.47054291469740406,0,0,0.9410858293948081,0
41,41,Plane_0_0_.jpg,plane,line,geo,correct,2.8695311549999998,y,y,0,0,0,NA,0.34906585039886595,0,0,0.6981317007977319,0
42,6,Plane_0_3_.jpg,plane,line,geo,correct,2.302729845,y,y,0,3,0,NA,0.8550332201079094,0,0,1.7100664402158188,0
42,14,Plane_0_6_.jpg,plane,line,geo,correct,1.936258078,y,y,0,6,0,NA,2.094395102393195,0,0,4.18879020478639,0
42,18,Plane_0_5_.jpg,plane,line,geo,correct,2.102900982,y,y,0,5,0,NA,1.5536984718136575,0,0,3.107396943627315,0
42,30,Plane_0_0_.jpg,plane,line,geo,correct,1.802872896,y,y,0,0,0,NA,0.34906585039886595,0,0,0.6981317007977319,0
42,40,Plane_0_1_.jpg,plane,line,geo,correct,2.069624186,y,y,0,1,0,NA,0.47054291469740406,0,0,0.9410858293948081,0
42,44,Plane_0_4_.jpg,plane,line,geo,correct,1.902858019,y,y,0,4,0,NA,1.1525900430905907,0,0,2.3051800861811813,0
42,46,Plane_0_2_.jpg,plane,line,geo,correct,1.636130095,y,y,0,2,0,NA,0.634294745014242,0,0,1.268589490028484,0
44,2,Plane_0_1_.jpg,plane,line,geo,correct,2.769556046,y,y,0,1,0,NA,0.47054291469740406,0,0,0.9410858293948081,0
44,4,Plane_0_0_.jpg,plane,line,geo,correct,3.669578791,y,y,0,0,0,NA,0.34906585039886595,0,0,0.6981317007977319,0
44,7,Plane_0_6_.jpg,plane,line,geo,correct,2.202909946,y,y,0,6,0,NA,2.094395102393195,0,0,4.18879020478639,0
44,15,Plane_0_5_.jpg,plane,line,geo,correct,1.736216068,y,y,0,5,0,NA,1.5536984718136575,0,0,3.107396943627315,0
44,19,Plane_0_2_.jpg,plane,line,geo,correct,2.136307955,y,y,0,2,0,NA,0.634294745014242,0,0,1.268589490028484,0
44,31,Plane_0_4_.jpg,plane,line,geo,correct,3.402832031,y,y,0,4,0,NA,1.1525900430905907,0,0,2.3051800861811813,0
44,56,Plane_0_3_.jpg,plane,line,geo,correct,4.002966881,y,y,0,3,0,NA,0.8550332201079094,0,0,1.7100664402158188,0
45,27,Plane_0_2_.jpg,plane,line,geo,correct,13.97002101,y,y,0,2,0,NA,0.634294745014242,0,0,1.268589490028484,0
45,29,Plane_0_3_.jpg,plane,line,geo,correct,6.903048992,y,y,0,3,0,NA,0.8550332201079094,0,0,1.7100664402158188,0
45,34,Plane_0_4_.jpg,plane,line,geo,correct,5.169656038,y,y,0,4,0,NA,1.1525900430905907,0,0,2.3051800861811813,0
45,44,Plane_0_6_.jpg,plane,line,geo,correct,7.536437035,y,y,0,6,0,NA,2.094395102393195,0,0,4.18879020478639,0
45,45,Plane_0_1_.jpg,plane,line,geo,correct,5.603096962,y,y,0,1,0,NA,0.47054291469740406,0,0,0.9410858293948081,0
45,46,Plane_0_0_.jpg,plane,line,geo,correct,5.136366129,y,y,0,0,0,NA,0.34906585039886595,0,0,0.6981317007977319,0
45,52,Plane_0_5_.jpg,plane,line,geo,correct,6.269795895,y,y,0,5,0,NA,1.5536984718136575,0,0,3.107396943627315,0
47,3,Plane_0_1_.jpg,plane,line,geo,correct,3.402809143,y,y,0,1,0,NA,0.47054291469740406,0,0,0.9410858293948081,0
47,5,Plane_0_6_.jpg,plane,line,geo,correct,3.63618207,y,y,0,6,0,NA,2.094395102393195,0,0,4.18879020478639,0
47,28,Plane_0_5_.jpg,plane,line,geo,correct,2.602710009,y,y,0,5,0,NA,1.5536984718136575,0,0,3.107396943627315,0
47,30,Plane_0_4_.jpg,plane,line,geo,correct,3.167149067,y,y,0,4,0,NA,1.1525900430905907,0,0,2.3051800861811813,0
47,31,Plane_0_0_.jpg,plane,line,geo,correct,2.469573975,y,y,0,0,0,NA,0.34906585039886595,0,0,0.6981317007977319,0
47,32,Plane_0_3_.jpg,plane,line,geo,correct,2.367139816,y,y,0,3,0,NA,0.8550332201079094,0,0,1.7100664402158188,0
47,44,Plane_0_2_.jpg,plane,line,geo,correct,2.936205864,y,y,0,2,0,NA,0.634294745014242,0,0,1.268589490028484,0
48,7,Plane_0_2_.jpg,plane,line,geo,correct,2.569597006,y,y,0,2,0,NA,0.634294745014242,0,0,1.268589490028484,0
48,14,Plane_0_0_.jpg,plane,line,geo,correct,2.384119987,y,y,0,0,0,NA,0.34906585039886595,0,0,0.6981317007977319,0
48,17,Plane_0_4_.jpg,plane,line,geo,correct,2.013318062,y,y,0,4,0,NA,1.1525900430905907,0,0,2.3051800861811813,0
48,29,Plane_0_6_.jpg,plane,line,geo,correct,2.049263954,y,y,0,6,0,NA,2.094395102393195,0,0,4.18879020478639,0
48,42,Plane_0_3_.jpg,plane,line,geo,correct,2.920141935,y,y,0,3,0,NA,0.8550332201079094,0,0,1.7100664402158188,0
48,50,Plane_0_1_.jpg,plane,line,geo,correct,2.753957033,y,y,0,1,0,NA,0.47054291469740406,0,0,0.9410858293948081,0
48,54,Plane_0_5_.jpg,plane,line,geo,correct,2.799558163,y,y,0,5,0,NA,1.5536984718136575,0,0,3.107396943627315,0
49,6,Plane_0_5_.jpg,plane,line,geo,correct,1.502990007,y,y,0,5,0,NA,1.5536984718136575,0,0,3.107396943627315,0
49,28,Plane_0_6_.jpg,plane,line,geo,correct,1.30279088,y,y,0,6,0,NA,2.094395102393195,0,0,4.18879020478639,0
49,36,Plane_0_1_.jpg,plane,line,geo,correct,1.269512177,y,y,0,1,0,NA,0.47054291469740406,0,0,0.9410858293948081,0
49,38,Plane_0_4_.jpg,plane,line,geo,correct,1.302840948,y,y,0,4,0,NA,1.1525900430905907,0,0,2.3051800861811813,0
49,42,Plane_0_2_.jpg,plane,line,geo,correct,1.236166,y,y,0,2,0,NA,0.634294745014242,0,0,1.268589490028484,0
49,48,Plane_0_3_.jpg,plane,line,geo,correct,1.53610301,y,y,0,3,0,NA,0.8550332201079094,0,0,1.7100664402158188,0
49,50,Plane_0_0_.jpg,plane,line,geo,correct,1.469236135,y,y,0,0,0,NA,0.34906585039886595,0,0,0.6981317007977319,0
52,23,Plane_0_2_.jpg,plane,line,geo,correct,2.324827909,y,y,0,2,0,NA,0.634294745014242,0,0,1.268589490028484,0
52,25,Plane_0_5_.jpg,plane,line,geo,correct,1.907066107,y,y,0,5,0,NA,1.5536984718136575,0,0,3.107396943627315,0
52,28,Plane_0_1_.jpg,plane,line,geo,correct,2.670994997,y,y,0,1,0,NA,0.47054291469740406,0,0,0.9410858293948081,0
52,34,Plane_0_4_.jpg,plane,line,geo,correct,2.153814077,y,y,0,4,0,NA,1.1525900430905907,0,0,2.3051800861811813,0
52,35,Plane_0_6_.jpg,plane,line,geo,correct,1.893394947,y,y,0,6,0,NA,2.094395102393195,0,0,4.18879020478639,0
52,43,Plane_0_3_.jpg,plane,line,geo,correct,1.491012096,y,y,0,3,0,NA,0.8550332201079094,0,0,1.7100664402158188,0
52,50,Plane_0_0_.jpg,plane,line,geo,correct,1.438975096,y,y,0,0,0,NA,0.34906585039886595,0,0,0.6981317007977319,0
53,1,Plane_0_3_.jpg,plane,line,geo,correct,3.002892017,y,y,0,3,0,NA,0.8550332201079094,0,0,1.7100664402158188,0
53,9,Plane_0_2_.jpg,plane,line,geo,correct,1.869462967,y,y,0,2,0,NA,0.634294745014242,0,0,1.268589490028484,0
53,12,Plane_0_0_.jpg,plane,line,geo,correct,1.802790165,y,y,0,0,0,NA,0.34906585039886595,0,0,0.6981317007977319,0
53,16,Plane_0_1_.jpg,plane,line,geo,correct,1.569527149,y,y,0,1,0,NA,0.47054291469740406,0,0,0.9410858293948081,0
53,27,Plane_0_4_.jpg,plane,line,geo,correct,1.269538879,y,y,0,4,0,NA,1.1525900430905907,0,0,2.3051800861811813,0
53,40,Plane_0_6_.jpg,plane,line,geo,correct,1.669418812,y,y,0,6,0,NA,2.094395102393195,0,0,4.18879020478639,0
53,42,Plane_0_5_.jpg,plane,line,geo,correct,1.369477034,y,y,0,5,0,NA,1.5536984718136575,0,0,3.107396943627315,0
55,6,Plane_0_2_.jpg,plane,line,geo,correct,1.861136913,y,y,0,2,0,NA,0.634294745014242,0,0,1.268589490028484,0
55,14,Plane_0_6_.jpg,plane,line,geo,correct,3.53995204,y,y,0,6,0,NA,2.094395102393195,0,0,4.18879020478639,0
55,18,Plane_0_3_.jpg,plane,line,geo,correct,1.880884886,y,y,0,3,0,NA,0.8550332201079094,0,0,1.7100664402158188,0
55,23,Plane_0_1_.jpg,plane,line,geo,correct,1.849863052,y,y,0,1,0,NA,0.47054291469740406,0,0,0.9410858293948081,0
55,26,Plane_0_4_.jpg,plane,line,geo,correct,1.927829027,y,y,0,4,0,NA,1.1525900430905907,0,0,2.3051800861811813,0
55,28,Plane_0_5_.jpg,plane,line,geo,correct,2.835986137,y,y,0,5,0,NA,1.5536984718136575,0,0,3.107396943627315,0
55,47,Plane_0_0_.jpg,plane,line,geo,correct,2.003408909,y,y,0,0,0,NA,0.34906585039886595,0,0,0.6981317007977319,0
57,7,Plane_0_5_.jpg,plane,line,geo,correct,3.237922907,y,y,0,5,0,NA,1.5536984718136575,0,0,3.107396943627315,0
57,19,Plane_0_3_.jpg,plane,line,geo,correct,3.5498631,y,y,0,3,0,NA,0.8550332201079094,0,0,1.7100664402158188,0
57,20,Plane_0_1_.jpg,plane,line,geo,correct,1.824517965,y,y,0,1,0,NA,0.47054291469740406,0,0,0.9410858293948081,0
57,39,Plane_0_0_.jpg,plane,line,geo,correct,5.270018101,y,y,0,0,0,NA,0.34906585039886595,0,0,0.6981317007977319,0
57,45,Plane_0_6_.jpg,plane,line,geo,correct,3.590955019,y,y,0,6,0,NA,2.094395102393195,0,0,4.18879020478639,0
57,48,Plane_0_2_.jpg,plane,line,geo,correct,2.225462914,y,y,0,2,0,NA,0.634294745014242,0,0,1.268589490028484,0
57,50,Plane_0_4_.jpg,plane,line,geo,correct,2.108733177,y,y,0,4,0,NA,1.1525900430905907,0,0,2.3051800861811813,0
58,6,Plane_0_3_.jpg,plane,line,geo,correct,5.9029212,y,y,0,3,0,NA,0.8550332201079094,0,0,1.7100664402158188,0
58,10,Plane_0_0_.jpg,plane,line,geo,correct,1.769465923,y,y,0,0,0,NA,0.34906585039886595,0,0,0.6981317007977319,0
58,13,Plane_0_6_.jpg,plane,line,geo,correct,3.003484964,y,y,0,6,0,NA,2.094395102393195,0,0,4.18879020478639,0
58,16,Plane_0_2_.jpg,plane,line,geo,correct,2.103508949,y,y,0,2,0,NA,0.634294745014242,0,0,1.268589490028484,0
58,22,Plane_0_5_.jpg,plane,line,geo,correct,2.003528833,y,y,0,5,0,NA,1.5536984718136575,0,0,3.107396943627315,0
58,48,Plane_0_4_.jpg,plane,line,geo,correct,2.436761141,y,y,0,4,0,NA,1.1525900430905907,0,0,2.3051800861811813,0
58,54,Plane_0_1_.jpg,plane,line,geo,correct,1.403439999,y,y,0,1,0,NA,0.47054291469740406,0,0,0.9410858293948081,0
59,11,Plane_0_6_.jpg,plane,line,geo,correct,2.936157942,y,y,0,6,0,NA,2.094395102393195,0,0,4.18879020478639,0
59,22,Plane_0_0_.jpg,plane,line,geo,correct,2.236155033,y,y,0,0,0,NA,0.34906585039886595,0,0,0.6981317007977319,0
59,24,Plane_0_2_.jpg,plane,line,geo,correct,2.102878094,y,y,0,2,0,NA,0.634294745014242,0,0,1.268589490028484,0
59,27,Plane_0_4_.jpg,plane,line,geo,correct,1.836030006,y,y,0,4,0,NA,1.1525900430905907,0,0,2.3051800861811813,0
59,31,Plane_0_3_.jpg,plane,line,geo,correct,1.769405127,y,y,0,3,0,NA,0.8550332201079094,0,0,1.7100664402158188,0
59,47,Plane_0_1_.jpg,plane,line,geo,correct,2.036222935,y,y,0,1,0,NA,0.47054291469740406,0,0,0.9410858293948081,0
59,54,Plane_0_5_.jpg,plane,line,geo,correct,1.536085844,y,y,0,5,0,NA,1.5536984718136575,0,0,3.107396943627315,0
61,2,Plane_0_3_.jpg,plane,line,geo,correct,2.081408978,y,y,0,3,0,NA,0.8550332201079094,0,0,1.7100664402158188,0
61,22,Plane_0_6_.jpg,plane,line,geo,correct,1.725353956,y,y,0,6,0,NA,2.094395102393195,0,0,4.18879020478639,0
61,24,Plane_0_0_.jpg,plane,line,geo,correct,1.497344017,y,y,0,0,0,NA,0.34906585039886595,0,0,0.6981317007977319,0
61,30,Plane_0_4_.jpg,plane,line,geo,correct,1.907383919,y,y,0,4,0,NA,1.1525900430905907,0,0,2.3051800861811813,0
61,36,Plane_0_2_.jpg,plane,line,geo,correct,1.596338034,y,y,0,2,0,NA,0.634294745014242,0,0,1.268589490028484,0
61,42,Plane_0_1_.jpg,plane,line,geo,correct,1.513259888,y,y,0,1,0,NA,0.47054291469740406,0,0,0.9410858293948081,0
61,50,Plane_0_5_.jpg,plane,line,geo,correct,1.43485713,y,y,0,5,0,NA,1.5536984718136575,0,0,3.107396943627315,0
62,3,Plane_0_1_.jpg,plane,line,geo,correct,3.702636003,y,y,0,1,0,NA,0.47054291469740406,0,0,0.9410858293948081,0
62,5,Plane_0_6_.jpg,plane,line,geo,correct,2.902657986,y,y,0,6,0,NA,2.094395102393195,0,0,4.18879020478639,0
62,28,Plane_0_5_.jpg,plane,line,geo,correct,2.369463921,y,y,0,5,0,NA,1.5536984718136575,0,0,3.107396943627315,0
62,30,Plane_0_4_.jpg,plane,line,geo,correct,1.936154842,y,y,0,4,0,NA,1.1525900430905907,0,0,2.3051800861811813,0
62,31,Plane_0_0_.jpg,plane,line,geo,correct,2.133861065,y,y,0,0,0,NA,0.34906585039886595,0,0,0.6981317007977319,0
62,32,Plane_0_3_.jpg,plane,line,geo,correct,2.836214066,y,y,0,3,0,NA,0.8550332201079094,0,0,1.7100664402158188,0
62,44,Plane_0_2_.jpg,plane,line,geo,correct,2.236250877,y,y,0,2,0,NA,0.634294745014242,0,0,1.268589490028484,0
63,4,Plane_0_0_.jpg,plane,line,geo,correct,2.225815058,y,y,0,0,0,NA,0.34906585039886595,0,0,0.6981317007977319,0
63,36,Plane_0_1_.jpg,plane,line,geo,correct,1.584219933,y,y,0,1,0,NA,0.47054291469740406,0,0,0.9410858293948081,0
63,35,Plane_0_2_.jpg,plane,line,geo,correct,1.593898058,y,y,0,2,0,NA,0.634294745014242,0,0,1.268589490028484,0
63,56,Plane_0_3_.jpg,plane,line,geo,correct,2.268115997,y,y,0,3,0,NA,0.8550332201079094,0,0,1.7100664402158188,0
63,32,Plane_0_4_.jpg,plane,line,geo,correct,1.855782986,y,y,0,4,0,NA,1.1525900430905907,0,0,2.3051800861811813,0
63,21,Plane_0_5_.jpg,plane,line,geo,correct,1.910559893,y,y,0,5,0,NA,1.5536984718136575,0,0,3.107396943627315,0
63,28,Plane_0_6_.jpg,plane,line,geo,correct,2.101771832,y,y,0,6,0,NA,2.094395102393195,0,0,4.18879020478639,0
65,1,Plane_0_3_.jpg,plane,line,geo,correct,4.415395975,y,y,0,3,0,NA,0.8550332201079094,0,0,1.7100664402158188,0
65,3,Plane_0_6_.jpg,plane,line,geo,correct,2.740916967,y,y,0,6,0,NA,2.094395102393195,0,0,4.18879020478639,0
65,6,Plane_0_5_.jpg,plane,line,geo,correct,2.053410053,y,y,0,5,0,NA,1.5536984718136575,0,0,3.107396943627315,0
65,12,Plane_0_1_.jpg,plane,line,geo,correct,1.947724104,y,y,0,1,0,NA,0.47054291469740406,0,0,0.9410858293948081,0
65,26,Plane_0_0_.jpg,plane,line,geo,correct,1.596541882,y,y,0,0,0,NA,0.34906585039886595,0,0,0.6981317007977319,0
65,28,Plane_0_4_.jpg,plane,line,geo,correct,1.628965139,y,y,0,4,0,NA,1.1525900430905907,0,0,2.3051800861811813,0
65,50,Plane_0_2_.jpg,plane,line,geo,correct,1.599721909,y,y,0,2,0,NA,0.634294745014242,0,0,1.268589490028484,0
67,17,Plane_0_5_.jpg,plane,line,geo,correct,1.993371964,y,y,0,5,0,NA,1.5536984718136575,0,0,3.107396943627315,0
67,24,Plane_0_1_.jpg,plane,line,geo,correct,1.261771917,y,y,0,1,0,NA,0.47054291469740406,0,0,0.9410858293948081,0
67,31,Plane_0_0_.jpg,plane,line,geo,correct,1.213208914,y,y,0,0,0,NA,0.34906585039886595,0,0,0.6981317007977319,0
67,37,Plane_0_2_.jpg,plane,line,geo,correct,1.175466061,y,y,0,2,0,NA,0.634294745014242,0,0,1.268589490028484,0
67,39,Plane_0_3_.jpg,plane,line,geo,correct,1.478177071,y,y,0,3,0,NA,0.8550332201079094,0,0,1.7100664402158188,0
67,47,Plane_0_6_.jpg,plane,line,geo,correct,1.275777102,y,y,0,6,0,NA,2.094395102393195,0,0,4.18879020478639,0
67,55,Plane_0_4_.jpg,plane,line,geo,correct,1.462556839,y,y,0,4,0,NA,1.1525900430905907,0,0,2.3051800861811813,0
69,12,Plane_0_1_.jpg,plane,line,geo,correct,1.435692072,y,y,0,1,0,NA,0.47054291469740406,0,0,0.9410858293948081,0
69,26,Plane_0_4_.jpg,plane,line,geo,correct,1.425379038,y,y,0,4,0,NA,1.1525900430905907,0,0,2.3051800861811813,0
69,29,Plane_0_3_.jpg,plane,line,geo,correct,1.927742004,y,y,0,3,0,NA,0.8550332201079094,0,0,1.7100664402158188,0
69,31,Plane_0_5_.jpg,plane,line,geo,correct,1.474529982,y,y,0,5,0,NA,1.5536984718136575,0,0,3.107396943627315,0
69,39,Plane_0_2_.jpg,plane,line,geo,correct,2.300090075,y,y,0,2,0,NA,0.634294745014242,0,0,1.268589490028484,0
69,46,Plane_0_6_.jpg,plane,line,geo,correct,1.753574133,y,y,0,6,0,NA,2.094395102393195,0,0,4.18879020478639,0
69,49,Plane_0_0_.jpg,plane,line,geo,correct,1.284576893,y,y,0,0,0,NA,0.34906585039886595,0,0,0.6981317007977319,0
70,21,Plane_0_0_.jpg,plane,line,geo,correct,1.281085968,y,y,0,0,0,NA,0.34906585039886595,0,0,0.6981317007977319,0
70,23,Plane_0_2_.jpg,plane,line,geo,correct,1.430574894,y,y,0,2,0,NA,0.634294745014242,0,0,1.268589490028484,0
70,26,Plane_0_5_.jpg,plane,line,geo,correct,1.620844841,y,y,0,5,0,NA,1.5536984718136575,0,0,3.107396943627315,0
70,30,Plane_0_4_.jpg,plane,line,geo,correct,1.367068052,y,y,0,4,0,NA,1.1525900430905907,0,0,2.3051800861811813,0
70,33,Plane_0_6_.jpg,plane,line,geo,correct,1.299031019,y,y,0,6,0,NA,2.094395102393195,0,0,4.18879020478639,0
70,41,Plane_0_3_.jpg,plane,line,geo,correct,2.506798029,y,y,0,3,0,NA,0.8550332201079094,0,0,1.7100664402158188,0
70,46,Plane_0_1_.jpg,plane,line,geo,correct,2.258657932,y,y,0,1,0,NA,0.47054291469740406,0,0,0.9410858293948081,0
1,16,Plane_0_0_(Neg)4_.jpg,plane,line,arc,correct,3.336241007,y,y,0,0,-4,NA,0.34906585039886595,0,0.4067366430758003,0.6377750441000712,0
1,22,Plane_0_5_(Neg)2_.jpg,plane,line,arc,correct,6.503025055,y,y,0,5,-2,NA,1.5536984718136575,0,0.2079116908177595,3.039492864936619,0
1,24,Plane_0_3_(Neg)1_.jpg,plane,line,arc,correct,3.836246967,y,y,0,3,-1,NA,0.8550332201079094,0,0.10452846326765282,1.7006985173291123,0
1,34,Plane_0_4_5_.jpg,plane,line,arc,correct,14.1363008,y,y,0,4,5,NA,1.1525900430905907,0,0.5000000000000001,1.9963445149309045,0
1,47,Plane_0_2_1_.jpg,plane,line,arc,correct,4.703001022,y,y,0,2,1,NA,0.634294745014242,0,0.10452846326765282,1.2616400240673993,0
1,48,Plane_0_6_3_.jpg,plane,line,arc,correct,4.10302496,y,y,0,6,3,NA,2.094395102393195,0,0.30901699437494756,3.9837762196554065,0
1,52,Plane_0_1_2_.jpg,plane,line,arc,correct,3.969640017,y,y,0,1,2,NA,0.47054291469740406,0,0.2079116908177595,0.920520846107115,0
2,12,Plane_0_3_(Neg)1_.jpg,plane,line,arc,correct,4.556559086,y,y,0,3,-1,NA,0.8550332201079094,0,0.10452846326765282,1.7006985173291123,0
2,24,Plane_0_0_(Neg)4_.jpg,plane,line,arc,correct,4.102368832,y,y,0,0,-4,NA,0.34906585039886595,0,0.4067366430758003,0.6377750441000712,0
2,30,Plane_0_2_1_.jpg,plane,line,arc,correct,3.620936871,y,y,0,2,1,NA,0.634294745014242,0,0.10452846326765282,1.2616400240673993,0
2,31,Plane_0_6_3_.jpg,plane,line,arc,correct,3.714238882,y,y,0,6,3,NA,2.094395102393195,0,0.30901699437494756,3.9837762196554065,0
2,44,Plane_0_4_5_.jpg,plane,line,arc,correct,3.603242874,y,y,0,4,5,NA,1.1525900430905907,0,0.5000000000000001,1.9963445149309045,0
2,47,Plane_0_1_2_.jpg,plane,line,arc,correct,4.137243986,y,y,0,1,2,NA,0.47054291469740406,0,0.2079116908177595,0.920520846107115,0
2,55,Plane_0_5_(Neg)2_.jpg,plane,line,arc,correct,5.701311827,y,y,0,5,-2,NA,1.5536984718136575,0,0.2079116908177595,3.039492864936619,0
3,7,Plane_0_4_5_.jpg,plane,line,arc,correct,3.152997017,y,y,0,4,5,NA,1.1525900430905907,0,0.5000000000000001,1.9963445149309045,0
3,14,Plane_0_0_(Neg)4_.jpg,plane,line,arc,correct,2.502869844,y,y,0,0,-4,NA,0.34906585039886595,0,0.4067366430758003,0.6377750441000712,0
3,34,Plane_0_5_(Neg)2_.jpg,plane,line,arc,correct,5.569710016,y,y,0,5,-2,NA,1.5536984718136575,0,0.2079116908177595,3.039492864936619,0
3,40,Plane_0_2_1_.jpg,plane,line,arc,correct,2.669599056,y,y,0,2,1,NA,0.634294745014242,0,0.10452846326765282,1.2616400240673993,0
3,42,Plane_0_3_(Neg)1_.jpg,plane,line,arc,correct,3.202863932,y,y,0,3,-1,NA,0.8550332201079094,0,0.10452846326765282,1.7006985173291123,0
3,44,Plane_0_6_3_.jpg,plane,line,arc,correct,2.869758129,y,y,0,6,3,NA,2.094395102393195,0,0.30901699437494756,3.9837762196554065,0
3,53,Plane_0_1_2_.jpg,plane,line,arc,correct,3.402875185,y,y,0,1,2,NA,0.47054291469740406,0,0.2079116908177595,0.920520846107115,0
4,1,Plane_0_4_5_.jpg,plane,line,arc,correct,6.979393005,y,y,0,4,5,NA,1.1525900430905907,0,0.5000000000000001,1.9963445149309045,0
4,8,Plane_0_0_(Neg)4_.jpg,plane,line,arc,correct,4.267904043,y,y,0,0,-4,NA,0.34906585039886595,0,0.4067366430758003,0.6377750441000712,0
4,22,Plane_0_3_(Neg)1_.jpg,plane,line,arc,correct,6.922697783,y,y,0,3,-1,NA,0.8550332201079094,0,0.10452846326765282,1.7006985173291123,0
4,25,Plane_0_6_3_.jpg,plane,line,arc,correct,4.28245616,y,y,0,6,3,NA,2.094395102393195,0,0.30901699437494756,3.9837762196554065,0
4,27,Plane_0_1_2_.jpg,plane,line,arc,incorrect,5.264951944,y,n,0,1,2,NA,0.47054291469740406,0,0.2079116908177595,0.920520846107115,0
4,31,Plane_0_5_(Neg)2_.jpg,plane,line,arc,correct,10.48175693,y,y,0,5,-2,NA,1.5536984718136575,0,0.2079116908177595,3.039492864936619,0
4,38,Plane_0_2_1_.jpg,plane,line,arc,correct,4.56834197,y,y,0,2,1,NA,0.634294745014242,0,0.10452846326765282,1.2616400240673993,0
7,15,Plane_0_1_2_.jpg,plane,line,arc,correct,5.739135981,y,y,0,1,2,NA,0.47054291469740406,0,0.2079116908177595,0.920520846107115,0
7,21,Plane_0_6_3_.jpg,plane,line,arc,correct,2.21125412,y,y,0,6,3,NA,2.094395102393195,0,0.30901699437494756,3.9837762196554065,0
7,22,Plane_0_2_1_.jpg,plane,line,arc,correct,1.722951889,y,y,0,2,1,NA,0.634294745014242,0,0.10452846326765282,1.2616400240673993,0
7,36,Plane_0_5_(Neg)2_.jpg,plane,line,arc,correct,3.270469904,y,y,0,5,-2,NA,1.5536984718136575,0,0.2079116908177595,3.039492864936619,0
7,48,Plane_0_0_(Neg)4_.jpg,plane,line,arc,correct,2.438887119,y,y,0,0,-4,NA,0.34906585039886595,0,0.4067366430758003,0.6377750441000712,0
7,50,Plane_0_4_5_.jpg,plane,line,arc,correct,2.642598152,y,y,0,4,5,NA,1.1525900430905907,0,0.5000000000000001,1.9963445149309045,0
7,54,Plane_0_3_(Neg)1_.jpg,plane,line,arc,correct,2.360103846,y,y,0,3,-1,NA,0.8550332201079094,0,0.10452846326765282,1.7006985173291123,0
9,4,Plane_0_2_1_.jpg,plane,line,arc,correct,2.595386982,y,y,0,2,1,NA,0.634294745014242,0,0.10452846326765282,1.2616400240673993,0
9,18,Plane_0_6_3_.jpg,plane,line,arc,correct,2.580904961,y,y,0,6,3,NA,2.094395102393195,0,0.30901699437494756,3.9837762196554065,0
9,20,Plane_0_5_(Neg)2_.jpg,plane,line,arc,correct,3.665574074,y,y,0,5,-2,NA,1.5536984718136575,0,0.2079116908177595,3.039492864936619,0
9,22,Plane_0_1_2_.jpg,plane,line,arc,correct,3.195040941,y,y,0,1,2,NA,0.47054291469740406,0,0.2079116908177595,0.920520846107115,0
9,34,Plane_0_0_(Neg)4_.jpg,plane,line,arc,correct,3.311830997,y,y,0,0,-4,NA,0.34906585039886595,0,0.4067366430758003,0.6377750441000712,0
9,40,Plane_0_4_5_.jpg,plane,line,arc,correct,4.042220116,y,y,0,4,5,NA,1.1525900430905907,0,0.5000000000000001,1.9963445149309045,0
9,55,Plane_0_3_(Neg)1_.jpg,plane,line,arc,correct,2.187114,y,y,0,3,-1,NA,0.8550332201079094,0,0.10452846326765282,1.7006985173291123,0
10,9,Plane_0_3_(Neg)1_.jpg,plane,line,arc,correct,1.636239052,y,y,0,3,-1,NA,0.8550332201079094,0,0.10452846326765282,1.7006985173291123,0
10,12,Plane_0_0_(Neg)4_.jpg,plane,line,arc,correct,1.569666862,y,y,0,0,-4,NA,0.34906585039886595,0,0.4067366430758003,0.6377750441000712,0
10,13,Plane_0_2_1_.jpg,plane,line,arc,correct,2.036227942,y,y,0,2,1,NA,0.634294745014242,0,0.10452846326765282,1.2616400240673993,0
10,15,Plane_0_4_5_.jpg,plane,line,arc,correct,1.902899027,y,y,0,4,5,NA,1.1525900430905907,0,0.5000000000000001,1.9963445149309045,0
10,31,Plane_0_6_3_.jpg,plane,line,arc,correct,1.869584084,y,y,0,6,3,NA,2.094395102393195,0,0.30901699437494756,3.9837762196554065,0
10,38,Plane_0_1_2_.jpg,plane,line,arc,correct,2.036306858,y,y,0,1,2,NA,0.47054291469740406,0,0.2079116908177595,0.920520846107115,0
10,53,Plane_0_5_(Neg)2_.jpg,plane,line,arc,correct,2.069642067,y,y,0,5,-2,NA,1.5536984718136575,0,0.2079116908177595,3.039492864936619,0
11,2,Plane_0_4_5_.jpg,plane,line,arc,correct,2.953374147,y,y,0,4,5,NA,1.1525900430905907,0,0.5000000000000001,1.9963445149309045,0
11,5,Plane_0_1_2_.jpg,plane,line,arc,correct,4.249513865,y,y,0,1,2,NA,0.47054291469740406,0,0.2079116908177595,0.920520846107115,0
11,7,Plane_0_2_1_.jpg,plane,line,arc,correct,2.157109976,y,y,0,2,1,NA,0.634294745014242,0,0.10452846326765282,1.2616400240673993,0
11,12,Plane_0_3_(Neg)1_.jpg,plane,line,arc,correct,3.473027945,y,y,0,3,-1,NA,0.8550332201079094,0,0.10452846326765282,1.7006985173291123,0
11,13,Plane_0_6_3_.jpg,plane,line,arc,correct,2.789598942,y,y,0,6,3,NA,2.094395102393195,0,0.30901699437494756,3.9837762196554065,0
11,39,Plane_0_5_(Neg)2_.jpg,plane,line,arc,correct,2.674839973,y,y,0,5,-2,NA,1.5536984718136575,0,0.2079116908177595,3.039492864936619,0
11,50,Plane_0_0_(Neg)4_.jpg,plane,line,arc,correct,2.829817772,y,y,0,0,-4,NA,0.34906585039886595,0,0.4067366430758003,0.6377750441000712,0
12,2,Plane_0_5_(Neg)2_.jpg,plane,line,arc,correct,3.136307001,y,y,0,5,-2,NA,1.5536984718136575,0,0.2079116908177595,3.039492864936619,0
12,3,Plane_0_2_1_.jpg,plane,line,arc,correct,1.769356966,y,y,0,2,1,NA,0.634294745014242,0,0.10452846326765282,1.2616400240673993,0
12,15,Plane_0_6_3_.jpg,plane,line,arc,correct,1.569543123,y,y,0,6,3,NA,2.094395102393195,0,0.30901699437494756,3.9837762196554065,0
12,23,Plane_0_1_2_.jpg,plane,line,arc,correct,1.7362110610000001,y,y,0,1,2,NA,0.47054291469740406,0,0.2079116908177595,0.920520846107115,0
12,42,Plane_0_4_5_.jpg,plane,line,arc,correct,1.66956687,y,y,0,4,5,NA,1.1525900430905907,0,0.5000000000000001,1.9963445149309045,0
12,48,Plane_0_0_(Neg)4_.jpg,plane,line,arc,correct,1.302845001,y,y,0,0,-4,NA,0.34906585039886595,0,0.4067366430758003,0.6377750441000712,0
12,54,Plane_0_3_(Neg)1_.jpg,plane,line,arc,correct,1.736114025,y,y,0,3,-1,NA,0.8550332201079094,0,0.10452846326765282,1.7006985173291123,0
13,6,Plane_0_0_(Neg)4_.jpg,plane,line,arc,correct,3.173084021,y,y,0,0,-4,NA,0.34906585039886595,0,0.4067366430758003,0.6377750441000712,0
13,14,Plane_0_4_5_.jpg,plane,line,arc,correct,3.208855152,y,y,0,4,5,NA,1.1525900430905907,0,0.5000000000000001,1.9963445149309045,0
13,23,Plane_0_6_3_.jpg,plane,line,arc,correct,4.194286823,y,y,0,6,3,NA,2.094395102393195,0,0.30901699437494756,3.9837762196554065,0
13,38,Plane_0_1_2_.jpg,plane,line,arc,correct,2.940538883,y,y,0,1,2,NA,0.47054291469740406,0,0.2079116908177595,0.920520846107115,0
13,40,Plane_0_5_(Neg)2_.jpg,plane,line,arc,correct,3.263312101,y,y,0,5,-2,NA,1.5536984718136575,0,0.2079116908177595,3.039492864936619,0
13,42,Plane_0_2_1_.jpg,plane,line,arc,correct,3.137233019,y,y,0,2,1,NA,0.634294745014242,0,0.10452846326765282,1.2616400240673993,0
13,51,Plane_0_3_(Neg)1_.jpg,plane,line,arc,correct,3.485833883,y,y,0,3,-1,NA,0.8550332201079094,0,0.10452846326765282,1.7006985173291123,0
14,4,Plane_0_5_(Neg)2_.jpg,plane,line,arc,correct,2.900488138,y,y,0,5,-2,NA,1.5536984718136575,0,0.2079116908177595,3.039492864936619,0
14,32,Plane_0_3_(Neg)1_.jpg,plane,line,arc,correct,1.702857018,y,y,0,3,-1,NA,0.8550332201079094,0,0.10452846326765282,1.7006985173291123,0
14,34,Plane_0_6_3_.jpg,plane,line,arc,correct,1.56974721,y,y,0,6,3,NA,2.094395102393195,0,0.30901699437494756,3.9837762196554065,0
14,42,Plane_0_2_1_.jpg,plane,line,arc,correct,2.236237049,y,y,0,2,1,NA,0.634294745014242,0,0.10452846326765282,1.2616400240673993,0
14,49,Plane_0_1_2_.jpg,plane,line,arc,correct,2.302982092,y,y,0,1,2,NA,0.47054291469740406,0,0.2079116908177595,0.920520846107115,0
14,52,Plane_0_0_(Neg)4_.jpg,plane,line,arc,correct,1.602859974,y,y,0,0,-4,NA,0.34906585039886595,0,0.4067366430758003,0.6377750441000712,0
14,54,Plane_0_4_5_.jpg,plane,line,arc,correct,1.805797815,y,y,0,4,5,NA,1.1525900430905907,0,0.5000000000000001,1.9963445149309045,0
16,12,Plane_0_2_1_.jpg,plane,line,arc,correct,3.544926167,y,y,0,2,1,NA,0.634294745014242,0,0.10452846326765282,1.2616400240673993,0
16,15,Plane_0_4_5_.jpg,plane,line,arc,correct,3.863811016,y,y,0,4,5,NA,1.1525900430905907,0,0.5000000000000001,1.9963445149309045,0
16,28,Plane_0_3_(Neg)1_.jpg,plane,line,arc,correct,1.605492115,y,y,0,3,-1,NA,0.8550332201079094,0,0.10452846326765282,1.7006985173291123,0
16,33,Plane_0_6_3_.jpg,plane,line,arc,correct,1.842030048,y,y,0,6,3,NA,2.094395102393195,0,0.30901699437494756,3.9837762196554065,0
16,35,Plane_0_1_2_.jpg,plane,line,arc,correct,1.557967901,y,y,0,1,2,NA,0.47054291469740406,0,0.2079116908177595,0.920520846107115,0
16,41,Plane_0_0_(Neg)4_.jpg,plane,line,arc,correct,3.561681032,y,y,0,0,-4,NA,0.34906585039886595,0,0.4067366430758003,0.6377750441000712,0
16,48,Plane_0_5_(Neg)2_.jpg,plane,line,arc,correct,1.748281956,y,y,0,5,-2,NA,1.5536984718136575,0,0.2079116908177595,3.039492864936619,0
19,23,Plane_0_2_1_.jpg,plane,line,arc,correct,1.469382048,y,y,0,2,1,NA,0.634294745014242,0,0.10452846326765282,1.2616400240673993,0
19,25,Plane_0_6_3_.jpg,plane,line,arc,correct,1.536214113,y,y,0,6,3,NA,2.094395102393195,0,0.30901699437494756,3.9837762196554065,0
19,31,Plane_0_0_(Neg)4_.jpg,plane,line,arc,correct,1.467159987,y,y,0,0,-4,NA,0.34906585039886595,0,0.4067366430758003,0.6377750441000712,0
19,40,Plane_0_1_2_.jpg,plane,line,arc,correct,1.63619709,y,y,0,1,2,NA,0.47054291469740406,0,0.2079116908177595,0.920520846107115,0
19,51,Plane_0_4_5_.jpg,plane,line,arc,correct,1.802891016,y,y,0,4,5,NA,1.1525900430905907,0,0.5000000000000001,1.9963445149309045,0
19,54,Plane_0_3_(Neg)1_.jpg,plane,line,arc,correct,1.769629955,y,y,0,3,-1,NA,0.8550332201079094,0,0.10452846326765282,1.7006985173291123,0
19,56,Plane_0_5_(Neg)2_.jpg,plane,line,arc,correct,1.66942811,y,y,0,5,-2,NA,1.5536984718136575,0,0.2079116908177595,3.039492864936619,0
20,1,Plane_0_5_(Neg)2_.jpg,plane,line,arc,correct,2.369545937,y,y,0,5,-2,NA,1.5536984718136575,0,0.2079116908177595,3.039492864936619,0
20,8,Plane_0_6_3_.jpg,plane,line,arc,correct,1.93614912,y,y,0,6,3,NA,2.094395102393195,0,0.30901699437494756,3.9837762196554065,0
20,10,Plane_0_3_(Neg)1_.jpg,plane,line,arc,correct,1.536199093,y,y,0,3,-1,NA,0.8550332201079094,0,0.10452846326765282,1.7006985173291123,0
20,12,Plane_0_1_2_.jpg,plane,line,arc,correct,1.503132105,y,y,0,1,2,NA,0.47054291469740406,0,0.2079116908177595,0.920520846107115,0
20,40,Plane_0_0_(Neg)4_.jpg,plane,line,arc,correct,1.303017139,y,y,0,0,-4,NA,0.34906585039886595,0,0.4067366430758003,0.6377750441000712,0
20,42,Plane_0_4_5_.jpg,plane,line,arc,correct,1.269445896,y,y,0,4,5,NA,1.1525900430905907,0,0.5000000000000001,1.9963445149309045,0
20,51,Plane_0_2_1_.jpg,plane,line,arc,correct,1.63534689,y,y,0,2,1,NA,0.634294745014242,0,0.10452846326765282,1.2616400240673993,0
22,17,Plane_0_6_3_.jpg,plane,line,arc,correct,3.069462061,y,y,0,6,3,NA,2.094395102393195,0,0.30901699437494756,3.9837762196554065,0
22,25,Plane_0_2_1_.jpg,plane,line,arc,correct,3.202832937,y,y,0,2,1,NA,0.634294745014242,0,0.10452846326765282,1.2616400240673993,0
22,30,Plane_0_1_2_.jpg,plane,line,arc,correct,3.136176109,y,y,0,1,2,NA,0.47054291469740406,0,0.2079116908177595,0.920520846107115,0
22,33,Plane_0_0_(Neg)4_.jpg,plane,line,arc,correct,4.902867079,y,y,0,0,-4,NA,0.34906585039886595,0,0.4067366430758003,0.6377750441000712,0
22,45,Plane_0_3_(Neg)1_.jpg,plane,line,arc,correct,4.133816004,y,y,0,3,-1,NA,0.8550332201079094,0,0.10452846326765282,1.7006985173291123,0
22,47,Plane_0_5_(Neg)2_.jpg,plane,line,arc,correct,2.302796841,y,y,0,5,-2,NA,1.5536984718136575,0,0.2079116908177595,3.039492864936619,0
22,49,Plane_0_4_5_.jpg,plane,line,arc,correct,2.367172956,y,y,0,4,5,NA,1.1525900430905907,0,0.5000000000000001,1.9963445149309045,0
23,6,Plane_0_5_(Neg)2_.jpg,plane,line,arc,correct,2.802731037,y,y,0,5,-2,NA,1.5536984718136575,0,0.2079116908177595,3.039492864936619,0
23,9,Plane_0_3_(Neg)1_.jpg,plane,line,arc,correct,2.703022957,y,y,0,3,-1,NA,0.8550332201079094,0,0.10452846326765282,1.7006985173291123,0
23,36,Plane_0_1_2_.jpg,plane,line,arc,correct,3.119232893,y,y,0,1,2,NA,0.47054291469740406,0,0.2079116908177595,0.920520846107115,0
23,46,Plane_0_6_3_.jpg,plane,line,arc,correct,2.902879,y,y,0,6,3,NA,2.094395102393195,0,0.30901699437494756,3.9837762196554065,0
23,47,Plane_0_0_(Neg)4_.jpg,plane,line,arc,correct,2.186157942,y,y,0,0,-4,NA,0.34906585039886595,0,0.4067366430758003,0.6377750441000712,0
23,48,Plane_0_2_1_.jpg,plane,line,arc,correct,3.800536156,y,y,0,2,1,NA,0.634294745014242,0,0.10452846326765282,1.2616400240673993,0
23,54,Plane_0_4_5_.jpg,plane,line,arc,correct,2.936285019,y,y,0,4,5,NA,1.1525900430905907,0,0.5000000000000001,1.9963445149309045,0
24,2,Plane_0_2_1_.jpg,plane,line,arc,correct,2.069494963,y,y,0,2,1,NA,0.634294745014242,0,0.10452846326765282,1.2616400240673993,0
24,11,Plane_0_1_2_.jpg,plane,line,arc,correct,1.50288105,y,y,0,1,2,NA,0.47054291469740406,0,0.2079116908177595,0.920520846107115,0
24,12,Plane_0_0_(Neg)4_.jpg,plane,line,arc,correct,1.536448002,y,y,0,0,-4,NA,0.34906585039886595,0,0.4067366430758003,0.6377750441000712,0
24,17,Plane_0_4_5_.jpg,plane,line,arc,correct,2.169512033,y,y,0,4,5,NA,1.1525900430905907,0,0.5000000000000001,1.9963445149309045,0
24,39,Plane_0_5_(Neg)2_.jpg,plane,line,arc,correct,1.502808094,y,y,0,5,-2,NA,1.5536984718136575,0,0.2079116908177595,3.039492864936619,0
24,49,Plane_0_6_3_.jpg,plane,line,arc,correct,1.902956009,y,y,0,6,3,NA,2.094395102393195,0,0.30901699437494756,3.9837762196554065,0
24,55,Plane_0_3_(Neg)1_.jpg,plane,line,arc,correct,1.702847004,y,y,0,3,-1,NA,0.8550332201079094,0,0.10452846326765282,1.7006985173291123,0
25,22,Plane_0_0_(Neg)4_.jpg,plane,line,arc,correct,2.169462919,y,y,0,0,-4,NA,0.34906585039886595,0,0.4067366430758003,0.6377750441000712,0
25,24,Plane_0_5_(Neg)2_.jpg,plane,line,arc,correct,2.402799129,y,y,0,5,-2,NA,1.5536984718136575,0,0.2079116908177595,3.039492864936619,0
25,38,Plane_0_2_1_.jpg,plane,line,arc,correct,2.302818775,y,y,0,2,1,NA,0.634294745014242,0,0.10452846326765282,1.2616400240673993,0
25,43,Plane_0_1_2_.jpg,plane,line,arc,correct,2.602792025,y,y,0,1,2,NA,0.47054291469740406,0,0.2079116908177595,0.920520846107115,0
25,46,Plane_0_6_3_.jpg,plane,line,arc,correct,2.702770948,y,y,0,6,3,NA,2.094395102393195,0,0.30901699437494756,3.9837762196554065,0
25,52,Plane_0_3_(Neg)1_.jpg,plane,line,arc,correct,2.302852154,y,y,0,3,-1,NA,0.8550332201079094,0,0.10452846326765282,1.7006985173291123,0
25,54,Plane_0_4_5_.jpg,plane,line,arc,correct,2.586158991,y,y,0,4,5,NA,1.1525900430905907,0,0.5000000000000001,1.9963445149309045,0
26,4,Plane_0_1_2_.jpg,plane,line,arc,correct,3.0362610820000002,y,y,0,1,2,NA,0.47054291469740406,0,0.2079116908177595,0.920520846107115,0
26,22,Plane_0_3_(Neg)1_.jpg,plane,line,arc,correct,2.569478035,y,y,0,3,-1,NA,0.8550332201079094,0,0.10452846326765282,1.7006985173291123,0
26,23,Plane_0_5_(Neg)2_.jpg,plane,line,arc,correct,2.636193037,y,y,0,5,-2,NA,1.5536984718136575,0,0.2079116908177595,3.039492864936619,0
26,27,Plane_0_0_(Neg)4_.jpg,plane,line,arc,correct,2.769480944,y,y,0,0,-4,NA,0.34906585039886595,0,0.4067366430758003,0.6377750441000712,0
26,44,Plane_0_6_3_.jpg,plane,line,arc,correct,2.236246824,y,y,0,6,3,NA,2.094395102393195,0,0.30901699437494756,3.9837762196554065,0
26,50,Plane_0_2_1_.jpg,plane,line,arc,correct,2.602591038,y,y,0,2,1,NA,0.634294745014242,0,0.10452846326765282,1.2616400240673993,0
26,51,Plane_0_4_5_.jpg,plane,line,arc,correct,2.067240953,y,y,0,4,5,NA,1.1525900430905907,0,0.5000000000000001,1.9963445149309045,0
27,13,Plane_0_3_(Neg)1_.jpg,plane,line,arc,correct,1.836194038,y,y,0,3,-1,NA,0.8550332201079094,0,0.10452846326765282,1.7006985173291123,0
27,18,Plane_0_0_(Neg)4_.jpg,plane,line,arc,correct,1.736442089,y,y,0,0,-4,NA,0.34906585039886595,0,0.4067366430758003,0.6377750441000712,0
27,42,Plane_0_2_1_.jpg,plane,line,arc,correct,1.70284605,y,y,0,2,1,NA,0.634294745014242,0,0.10452846326765282,1.2616400240673993,0
27,44,Plane_0_4_5_.jpg,plane,line,arc,correct,1.769536972,y,y,0,4,5,NA,1.1525900430905907,0,0.5000000000000001,1.9963445149309045,0
27,48,Plane_0_6_3_.jpg,plane,line,arc,correct,2.002748966,y,y,0,6,3,NA,2.094395102393195,0,0.30901699437494756,3.9837762196554065,0
27,49,Plane_0_5_(Neg)2_.jpg,plane,line,arc,correct,2.919178009,y,y,0,5,-2,NA,1.5536984718136575,0,0.2079116908177595,3.039492864936619,0
27,54,Plane_0_1_2_.jpg,plane,line,arc,correct,1.635993004,y,y,0,1,2,NA,0.47054291469740406,0,0.2079116908177595,0.920520846107115,0
29,11,Plane_0_1_2_.jpg,plane,line,arc,correct,1.902931929,y,y,0,1,2,NA,0.47054291469740406,0,0.2079116908177595,0.920520846107115,0
29,17,Plane_0_0_(Neg)4_.jpg,plane,line,arc,correct,1.93627286,y,y,0,0,-4,NA,0.34906585039886595,0,0.4067366430758003,0.6377750441000712,0
29,18,Plane_0_4_5_.jpg,plane,line,arc,correct,2.169460058,y,y,0,4,5,NA,1.1525900430905907,0,0.5000000000000001,1.9963445149309045,0
29,32,Plane_0_2_1_.jpg,plane,line,arc,correct,2.100450993,y,y,0,2,1,NA,0.634294745014242,0,0.10452846326765282,1.2616400240673993,0
29,36,Plane_0_5_(Neg)2_.jpg,plane,line,arc,correct,2.536015034,y,y,0,5,-2,NA,1.5536984718136575,0,0.2079116908177595,3.039492864936619,0
29,44,Plane_0_6_3_.jpg,plane,line,arc,correct,1.5028851030000001,y,y,0,6,3,NA,2.094395102393195,0,0.30901699437494756,3.9837762196554065,0
29,46,Plane_0_3_(Neg)1_.jpg,plane,line,arc,correct,1.836395025,y,y,0,3,-1,NA,0.8550332201079094,0,0.10452846326765282,1.7006985173291123,0
31,9,Plane_0_2_1_.jpg,plane,line,arc,correct,2.500475883,y,y,0,2,1,NA,0.634294745014242,0,0.10452846326765282,1.2616400240673993,0
31,12,Plane_0_4_5_.jpg,plane,line,arc,correct,2.969491959,y,y,0,4,5,NA,1.1525900430905907,0,0.5000000000000001,1.9963445149309045,0
31,19,Plane_0_5_(Neg)2_.jpg,plane,line,arc,correct,3.602820873,y,y,0,5,-2,NA,1.5536984718136575,0,0.2079116908177595,3.039492864936619,0
31,22,Plane_0_6_3_.jpg,plane,line,arc,correct,11.33626413,y,y,0,6,3,NA,2.094395102393195,0,0.30901699437494756,3.9837762196554065,0
31,38,Plane_0_3_(Neg)1_.jpg,plane,line,arc,correct,1.767146826,y,y,0,3,-1,NA,0.8550332201079094,0,0.10452846326765282,1.7006985173291123,0
31,41,Plane_0_1_2_.jpg,plane,line,arc,correct,3.402867079,y,y,0,1,2,NA,0.47054291469740406,0,0.2079116908177595,0.920520846107115,0
31,47,Plane_0_0_(Neg)4_.jpg,plane,line,arc,correct,2.60274291,y,y,0,0,-4,NA,0.34906585039886595,0,0.4067366430758003,0.6377750441000712,0
32,14,Plane_0_0_(Neg)4_.jpg,plane,line,arc,correct,4.53380394,y,y,0,0,-4,NA,0.34906585039886595,0,0.4067366430758003,0.6377750441000712,0
32,15,Plane_0_1_2_.jpg,plane,line,arc,correct,2.969810009,y,y,0,1,2,NA,0.47054291469740406,0,0.2079116908177595,0.920520846107115,0
32,35,Plane_0_5_(Neg)2_.jpg,plane,line,arc,correct,3.002840996,y,y,0,5,-2,NA,1.5536984718136575,0,0.2079116908177595,3.039492864936619,0
32,37,Plane_0_4_5_.jpg,plane,line,arc,correct,2.902832985,y,y,0,4,5,NA,1.1525900430905907,0,0.5000000000000001,1.9963445149309045,0
32,39,Plane_0_6_3_.jpg,plane,line,arc,correct,2.636167049,y,y,0,6,3,NA,2.094395102393195,0,0.30901699437494756,3.9837762196554065,0
32,41,Plane_0_3_(Neg)1_.jpg,plane,line,arc,correct,2.735988855,y,y,0,3,-1,NA,0.8550332201079094,0,0.10452846326765282,1.7006985173291123,0
32,49,Plane_0_2_1_.jpg,plane,line,arc,correct,3.202802897,y,y,0,2,1,NA,0.634294745014242,0,0.10452846326765282,1.2616400240673993,0
33,12,Plane_0_6_3_.jpg,plane,line,arc,correct,2.102929831,y,y,0,6,3,NA,2.094395102393195,0,0.30901699437494756,3.9837762196554065,0
33,14,Plane_0_3_(Neg)1_.jpg,plane,line,arc,correct,1.902925015,y,y,0,3,-1,NA,0.8550332201079094,0,0.10452846326765282,1.7006985173291123,0
33,27,Plane_0_1_2_.jpg,plane,line,arc,correct,1.703001976,y,y,0,1,2,NA,0.47054291469740406,0,0.2079116908177595,0.920520846107115,0
33,31,Plane_0_0_(Neg)4_.jpg,plane,line,arc,correct,1.402748108,y,y,0,0,-4,NA,0.34906585039886595,0,0.4067366430758003,0.6377750441000712,0
33,35,Plane_0_5_(Neg)2_.jpg,plane,line,arc,correct,1.702833176,y,y,0,5,-2,NA,1.5536984718136575,0,0.2079116908177595,3.039492864936619,0
33,47,Plane_0_4_5_.jpg,plane,line,arc,correct,1.602865934,y,y,0,4,5,NA,1.1525900430905907,0,0.5000000000000001,1.9963445149309045,0
33,53,Plane_0_2_1_.jpg,plane,line,arc,correct,1.502846003,y,y,0,2,1,NA,0.634294745014242,0,0.10452846326765282,1.2616400240673993,0
36,4,Plane_0_2_1_.jpg,plane,line,arc,correct,3.201896906,y,y,0,2,1,NA,0.634294745014242,0,0.10452846326765282,1.2616400240673993,0
36,10,Plane_0_6_3_.jpg,plane,line,arc,correct,2.199280024,y,y,0,6,3,NA,2.094395102393195,0,0.30901699437494756,3.9837762196554065,0
36,19,Plane_0_5_(Neg)2_.jpg,plane,line,arc,correct,1.927656174,y,y,0,5,-2,NA,1.5536984718136575,0,0.2079116908177595,3.039492864936619,0
36,22,Plane_0_3_(Neg)1_.jpg,plane,line,arc,correct,1.820545912,y,y,0,3,-1,NA,0.8550332201079094,0,0.10452846326765282,1.7006985173291123,0
36,30,Plane_0_4_5_.jpg,plane,line,arc,correct,1.905421019,y,y,0,4,5,NA,1.1525900430905907,0,0.5000000000000001,1.9963445149309045,0
36,37,Plane_0_1_2_.jpg,plane,line,arc,correct,1.974320889,y,y,0,1,2,NA,0.47054291469740406,0,0.2079116908177595,0.920520846107115,0
36,41,Plane_0_0_(Neg)4_.jpg,plane,line,arc,correct,1.658691883,y,y,0,0,-4,NA,0.34906585039886595,0,0.4067366430758003,0.6377750441000712,0
37,7,Plane_0_5_(Neg)2_.jpg,plane,line,arc,correct,3.903932095,y,y,0,5,-2,NA,1.5536984718136575,0,0.2079116908177595,3.039492864936619,0
37,19,Plane_0_0_(Neg)4_.jpg,plane,line,arc,correct,3.909620047,y,y,0,0,-4,NA,0.34906585039886595,0,0.4067366430758003,0.6377750441000712,0
37,21,Plane_0_1_2_.jpg,plane,line,arc,correct,3.343695879,y,y,0,1,2,NA,0.47054291469740406,0,0.2079116908177595,0.920520846107115,0
37,35,Plane_0_3_(Neg)1_.jpg,plane,line,arc,correct,4.421130896,y,y,0,3,-1,NA,0.8550332201079094,0,0.10452846326765282,1.7006985173291123,0
37,51,Plane_0_4_5_.jpg,plane,line,arc,correct,3.083820105,y,y,0,4,5,NA,1.1525900430905907,0,0.5000000000000001,1.9963445149309045,0
37,52,Plane_0_2_1_.jpg,plane,line,arc,correct,3.005885124,y,y,0,2,1,NA,0.634294745014242,0,0.10452846326765282,1.2616400240673993,0
37,53,Plane_0_6_3_.jpg,plane,line,arc,correct,3.285551071,y,y,0,6,3,NA,2.094395102393195,0,0.30901699437494756,3.9837762196554065,0
38,7,Plane_0_5_(Neg)2_.jpg,plane,line,arc,correct,2.691524982,y,y,0,5,-2,NA,1.5536984718136575,0,0.2079116908177595,3.039492864936619,0
38,8,Plane_0_1_2_.jpg,plane,line,arc,correct,2.458333969,y,y,0,1,2,NA,0.47054291469740406,0,0.2079116908177595,0.920520846107115,0
38,14,Plane_0_3_(Neg)1_.jpg,plane,line,arc,incorrect,9.311593056,y,y,0,3,-1,NA,0.8550332201079094,0,0.10452846326765282,1.7006985173291123,0
38,20,Plane_0_4_5_.jpg,plane,line,arc,correct,2.824624777,y,y,0,4,5,NA,1.1525900430905907,0,0.5000000000000001,1.9963445149309045,0
38,26,Plane_0_0_(Neg)4_.jpg,plane,line,arc,correct,2.490751028,y,y,0,0,-4,NA,0.34906585039886595,0,0.4067366430758003,0.6377750441000712,0
38,32,Plane_0_6_3_.jpg,plane,line,arc,correct,4.309597015,y,y,0,6,3,NA,2.094395102393195,0,0.30901699437494756,3.9837762196554065,0
38,44,Plane_0_2_1_.jpg,plane,line,arc,correct,1.84503293,y,y,0,2,1,NA,0.634294745014242,0,0.10452846326765282,1.2616400240673993,0
39,4,Plane_0_1_2_.jpg,plane,line,arc,correct,4.936421156,y,y,0,1,2,NA,0.47054291469740406,0,0.2079116908177595,0.920520846107115,0
39,30,Plane_0_3_(Neg)1_.jpg,plane,line,arc,correct,2.069559097,y,y,0,3,-1,NA,0.8550332201079094,0,0.10452846326765282,1.7006985173291123,0
39,43,Plane_0_4_5_.jpg,plane,line,arc,correct,2.569396973,y,y,0,4,5,NA,1.1525900430905907,0,0.5000000000000001,1.9963445149309045,0
39,44,Plane_0_2_1_.jpg,plane,line,arc,correct,2.802989006,y,y,0,2,1,NA,0.634294745014242,0,0.10452846326765282,1.2616400240673993,0
39,50,Plane_0_5_(Neg)2_.jpg,plane,line,arc,correct,2.269438982,y,y,0,5,-2,NA,1.5536984718136575,0,0.2079116908177595,3.039492864936619,0
39,53,Plane_0_0_(Neg)4_.jpg,plane,line,arc,correct,2.369556189,y,y,0,0,-4,NA,0.34906585039886595,0,0.4067366430758003,0.6377750441000712,0
39,56,Plane_0_6_3_.jpg,plane,line,arc,correct,2.069531918,y,y,0,6,3,NA,2.094395102393195,0,0.30901699437494756,3.9837762196554065,0
40,11,Plane_0_0_(Neg)4_.jpg,plane,line,arc,correct,2.76960206,y,y,0,0,-4,NA,0.34906585039886595,0,0.4067366430758003,0.6377750441000712,0
40,19,Plane_0_1_2_.jpg,plane,line,arc,correct,2.002928972,y,y,0,1,2,NA,0.47054291469740406,0,0.2079116908177595,0.920520846107115,0
40,20,Plane_0_2_1_.jpg,plane,line,arc,correct,1.76956296,y,y,0,2,1,NA,0.634294745014242,0,0.10452846326765282,1.2616400240673993,0
40,24,Plane_0_3_(Neg)1_.jpg,plane,line,arc,correct,2.003343105,y,y,0,3,-1,NA,0.8550332201079094,0,0.10452846326765282,1.7006985173291123,0
40,25,Plane_0_4_5_.jpg,plane,line,arc,correct,7.000497103,y,y,0,4,5,NA,1.1525900430905907,0,0.5000000000000001,1.9963445149309045,0
40,32,Plane_0_6_3_.jpg,plane,line,arc,correct,5.703011036,y,y,0,6,3,NA,2.094395102393195,0,0.30901699437494756,3.9837762196554065,0
40,49,Plane_0_5_(Neg)2_.jpg,plane,line,arc,correct,2.536279917,y,y,0,5,-2,NA,1.5536984718136575,0,0.2079116908177595,3.039492864936619,0
41,4,Plane_0_3_(Neg)1_.jpg,plane,line,arc,correct,2.136258841,y,y,0,3,-1,NA,0.8550332201079094,0,0.10452846326765282,1.7006985173291123,0
41,12,Plane_0_5_(Neg)2_.jpg,plane,line,arc,correct,2.036250114,y,y,0,5,-2,NA,1.5536984718136575,0,0.2079116908177595,3.039492864936619,0
41,21,Plane_0_6_3_.jpg,plane,line,arc,correct,2.202812195,y,y,0,6,3,NA,2.094395102393195,0,0.30901699437494756,3.9837762196554065,0
41,32,Plane_0_0_(Neg)4_.jpg,plane,line,arc,correct,1.836194992,y,y,0,0,-4,NA,0.34906585039886595,0,0.4067366430758003,0.6377750441000712,0
41,36,Plane_0_2_1_.jpg,plane,line,arc,correct,1.900394917,y,y,0,2,1,NA,0.634294745014242,0,0.10452846326765282,1.2616400240673993,0
41,47,Plane_0_1_2_.jpg,plane,line,arc,correct,2.102844954,y,y,0,1,2,NA,0.47054291469740406,0,0.2079116908177595,0.920520846107115,0
41,56,Plane_0_4_5_.jpg,plane,line,arc,correct,2.369577169,y,y,0,4,5,NA,1.1525900430905907,0,0.5000000000000001,1.9963445149309045,0
42,2,Plane_0_2_1_.jpg,plane,line,arc,correct,2.869427919,y,y,0,2,1,NA,0.634294745014242,0,0.10452846326765282,1.2616400240673993,0
42,3,Plane_0_5_(Neg)2_.jpg,plane,line,arc,correct,3.069425106,y,y,0,5,-2,NA,1.5536984718136575,0,0.2079116908177595,3.039492864936619,0
42,12,Plane_0_1_2_.jpg,plane,line,arc,correct,1.769584894,y,y,0,1,2,NA,0.47054291469740406,0,0.2079116908177595,0.920520846107115,0
42,27,Plane_0_3_(Neg)1_.jpg,plane,line,arc,correct,2.102832794,y,y,0,3,-1,NA,0.8550332201079094,0,0.10452846326765282,1.7006985173291123,0
42,33,Plane_0_0_(Neg)4_.jpg,plane,line,arc,correct,1.736252785,y,y,0,0,-4,NA,0.34906585039886595,0,0.4067366430758003,0.6377750441000712,0
42,50,Plane_0_4_5_.jpg,plane,line,arc,correct,2.936183929,y,y,0,4,5,NA,1.1525900430905907,0,0.5000000000000001,1.9963445149309045,0
42,51,Plane_0_6_3_.jpg,plane,line,arc,correct,2.069610119,y,y,0,6,3,NA,2.094395102393195,0,0.30901699437494756,3.9837762196554065,0
44,1,Plane_0_5_(Neg)2_.jpg,plane,line,arc,correct,4.836340904,y,y,0,5,-2,NA,1.5536984718136575,0,0.2079116908177595,3.039492864936619,0
44,12,Plane_0_4_5_.jpg,plane,line,arc,correct,2.036223173,y,y,0,4,5,NA,1.1525900430905907,0,0.5000000000000001,1.9963445149309045,0
44,33,Plane_0_3_(Neg)1_.jpg,plane,line,arc,correct,1.802946091,y,y,0,3,-1,NA,0.8550332201079094,0,0.10452846326765282,1.7006985173291123,0
44,35,Plane_0_2_1_.jpg,plane,line,arc,correct,3.202862024,y,y,0,2,1,NA,0.634294745014242,0,0.10452846326765282,1.2616400240673993,0
44,41,Plane_0_0_(Neg)4_.jpg,plane,line,arc,correct,2.302804947,y,y,0,0,-4,NA,0.34906585039886595,0,0.4067366430758003,0.6377750441000712,0
44,51,Plane_0_1_2_.jpg,plane,line,arc,correct,3.036301136,y,y,0,1,2,NA,0.47054291469740406,0,0.2079116908177595,0.920520846107115,0
44,52,Plane_0_6_3_.jpg,plane,line,arc,correct,1.600497007,y,y,0,6,3,NA,2.094395102393195,0,0.30901699437494756,3.9837762196554065,0
45,7,Plane_0_1_2_.jpg,plane,line,arc,correct,2.536246061,y,y,0,1,2,NA,0.47054291469740406,0,0.2079116908177595,0.920520846107115,0
45,24,Plane_0_5_(Neg)2_.jpg,plane,line,arc,correct,11.03384805,y,y,0,5,-2,NA,1.5536984718136575,0,0.2079116908177595,3.039492864936619,0
45,26,Plane_0_4_5_.jpg,plane,line,arc,correct,17.93628788,y,y,0,4,5,NA,1.1525900430905907,0,0.5000000000000001,1.9963445149309045,0
45,39,Plane_0_2_1_.jpg,plane,line,arc,correct,8.236423016,y,y,0,2,1,NA,0.634294745014242,0,0.10452846326765282,1.2616400240673993,0
45,41,Plane_0_3_(Neg)1_.jpg,plane,line,arc,correct,4.836340904,y,y,0,3,-1,NA,0.8550332201079094,0,0.10452846326765282,1.7006985173291123,0
45,49,Plane_0_6_3_.jpg,plane,line,arc,correct,5.502909184,y,y,0,6,3,NA,2.094395102393195,0,0.30901699437494756,3.9837762196554065,0
45,50,Plane_0_0_(Neg)4_.jpg,plane,line,arc,correct,9.403279066,y,y,0,0,-4,NA,0.34906585039886595,0,0.4067366430758003,0.6377750441000712,0
47,4,Plane_0_6_3_.jpg,plane,line,arc,correct,3.169865131,y,y,0,6,3,NA,2.094395102393195,0,0.30901699437494756,3.9837762196554065,0
47,11,Plane_0_0_(Neg)4_.jpg,plane,line,arc,correct,2.936172009,y,y,0,0,-4,NA,0.34906585039886595,0,0.4067366430758003,0.6377750441000712,0
47,27,Plane_0_2_1_.jpg,plane,line,arc,correct,2.036134958,y,y,0,2,1,NA,0.634294745014242,0,0.10452846326765282,1.2616400240673993,0
47,41,Plane_0_1_2_.jpg,plane,line,arc,correct,2.502947092,y,y,0,1,2,NA,0.47054291469740406,0,0.2079116908177595,0.920520846107115,0
47,42,Plane_0_4_5_.jpg,plane,line,arc,correct,4.336292982,y,y,0,4,5,NA,1.1525900430905907,0,0.5000000000000001,1.9963445149309045,0
47,53,Plane_0_5_(Neg)2_.jpg,plane,line,arc,correct,1.902905941,y,y,0,5,-2,NA,1.5536984718136575,0,0.2079116908177595,3.039492864936619,0
47,56,Plane_0_3_(Neg)1_.jpg,plane,line,arc,correct,1.769303799,y,y,0,3,-1,NA,0.8550332201079094,0,0.10452846326765282,1.7006985173291123,0
48,1,Plane_0_1_2_.jpg,plane,line,arc,correct,4.072928905,y,y,0,1,2,NA,0.47054291469740406,0,0.2079116908177595,0.920520846107115,0
48,20,Plane_0_2_1_.jpg,plane,line,arc,correct,2.640805006,y,y,0,2,1,NA,0.634294745014242,0,0.10452846326765282,1.2616400240673993,0
48,33,Plane_0_6_3_.jpg,plane,line,arc,correct,3.186519861,y,y,0,6,3,NA,2.094395102393195,0,0.30901699437494756,3.9837762196554065,0
48,37,Plane_0_3_(Neg)1_.jpg,plane,line,arc,correct,2.54412508,y,y,0,3,-1,NA,0.8550332201079094,0,0.10452846326765282,1.7006985173291123,0
48,47,Plane_0_4_5_.jpg,plane,line,arc,correct,2.97467804,y,y,0,4,5,NA,1.1525900430905907,0,0.5000000000000001,1.9963445149309045,0
48,53,Plane_0_5_(Neg)2_.jpg,plane,line,arc,correct,3.901491165,y,y,0,5,-2,NA,1.5536984718136575,0,0.2079116908177595,3.039492864936619,0
48,55,Plane_0_0_(Neg)4_.jpg,plane,line,arc,correct,3.322734833,y,y,0,0,-4,NA,0.34906585039886595,0,0.4067366430758003,0.6377750441000712,0
49,1,Plane_0_4_5_.jpg,plane,line,arc,correct,2.169445992,y,y,0,4,5,NA,1.1525900430905907,0,0.5000000000000001,1.9963445149309045,0
49,5,Plane_0_1_2_.jpg,plane,line,arc,correct,1.335969925,y,y,0,1,2,NA,0.47054291469740406,0,0.2079116908177595,0.920520846107115,0
49,24,Plane_0_6_3_.jpg,plane,line,arc,correct,1.336161137,y,y,0,6,3,NA,2.094395102393195,0,0.30901699437494756,3.9837762196554065,0
49,27,Plane_0_5_(Neg)2_.jpg,plane,line,arc,correct,1.902840137,y,y,0,5,-2,NA,1.5536984718136575,0,0.2079116908177595,3.039492864936619,0
49,41,Plane_0_0_(Neg)4_.jpg,plane,line,arc,correct,1.169522047,y,y,0,0,-4,NA,0.34906585039886595,0,0.4067366430758003,0.6377750441000712,0
49,44,Plane_0_2_1_.jpg,plane,line,arc,correct,1.669466972,y,y,0,2,1,NA,0.634294745014242,0,0.10452846326765282,1.2616400240673993,0
49,47,Plane_0_3_(Neg)1_.jpg,plane,line,arc,correct,1.700486898,y,y,0,3,-1,NA,0.8550332201079094,0,0.10452846326765282,1.7006985173291123,0
52,5,Plane_0_3_(Neg)1_.jpg,plane,line,arc,correct,3.608096123,y,y,0,3,-1,NA,0.8550332201079094,0,0.10452846326765282,1.7006985173291123,0
52,7,Plane_0_2_1_.jpg,plane,line,arc,correct,2.357283115,y,y,0,2,1,NA,0.634294745014242,0,0.10452846326765282,1.2616400240673993,0
52,12,Plane_0_1_2_.jpg,plane,line,arc,correct,2.138382912,y,y,0,1,2,NA,0.47054291469740406,0,0.2079116908177595,0.920520846107115,0
52,24,Plane_0_6_3_.jpg,plane,line,arc,correct,2.032822132,y,y,0,6,3,NA,2.094395102393195,0,0.30901699437494756,3.9837762196554065,0
52,49,Plane_0_4_5_.jpg,plane,line,arc,correct,1.72283411,y,y,0,4,5,NA,1.1525900430905907,0,0.5000000000000001,1.9963445149309045,0
52,53,Plane_0_0_(Neg)4_.jpg,plane,line,arc,correct,1.385833025,y,y,0,0,-4,NA,0.34906585039886595,0,0.4067366430758003,0.6377750441000712,0
52,54,Plane_0_5_(Neg)2_.jpg,plane,line,arc,correct,1.739396095,y,y,0,5,-2,NA,1.5536984718136575,0,0.2079116908177595,3.039492864936619,0
53,2,Plane_0_4_5_.jpg,plane,line,arc,correct,1.969447851,y,y,0,4,5,NA,1.1525900430905907,0,0.5000000000000001,1.9963445149309045,0
53,4,Plane_0_1_2_.jpg,plane,line,arc,correct,1.836228848,y,y,0,1,2,NA,0.47054291469740406,0,0.2079116908177595,0.920520846107115,0
53,6,Plane_0_3_(Neg)1_.jpg,plane,line,arc,correct,1.636034966,y,y,0,3,-1,NA,0.8550332201079094,0,0.10452846326765282,1.7006985173291123,0
53,25,Plane_0_5_(Neg)2_.jpg,plane,line,arc,correct,1.502794981,y,y,0,5,-2,NA,1.5536984718136575,0,0.2079116908177595,3.039492864936619,0
53,49,Plane_0_0_(Neg)4_.jpg,plane,line,arc,correct,1.469453812,y,y,0,0,-4,NA,0.34906585039886595,0,0.4067366430758003,0.6377750441000712,0
53,52,Plane_0_6_3_.jpg,plane,line,arc,correct,1.636076927,y,y,0,6,3,NA,2.094395102393195,0,0.30901699437494756,3.9837762196554065,0
53,55,Plane_0_2_1_.jpg,plane,line,arc,correct,1.135914087,y,y,0,2,1,NA,0.634294745014242,0,0.10452846326765282,1.2616400240673993,0
55,2,Plane_0_3_(Neg)1_.jpg,plane,line,arc,correct,1.95746398,y,y,0,3,-1,NA,0.8550332201079094,0,0.10452846326765282,1.7006985173291123,0
55,13,Plane_0_2_1_.jpg,plane,line,arc,correct,2.085788012,y,y,0,2,1,NA,0.634294745014242,0,0.10452846326765282,1.2616400240673993,0
55,17,Plane_0_6_3_.jpg,plane,line,arc,correct,2.170641899,y,y,0,6,3,NA,2.094395102393195,0,0.30901699437494756,3.9837762196554065,0
55,31,Plane_0_0_(Neg)4_.jpg,plane,line,arc,correct,2.421967983,y,y,0,0,-4,NA,0.34906585039886595,0,0.4067366430758003,0.6377750441000712,0
55,32,Plane_0_4_5_.jpg,plane,line,arc,correct,1.685956001,y,y,0,4,5,NA,1.1525900430905907,0,0.5000000000000001,1.9963445149309045,0
55,41,Plane_0_5_(Neg)2_.jpg,plane,line,arc,correct,2.288504124,y,y,0,5,-2,NA,1.5536984718136575,0,0.2079116908177595,3.039492864936619,0
55,44,Plane_0_1_2_.jpg,plane,line,arc,correct,2.055504084,y,y,0,1,2,NA,0.47054291469740406,0,0.2079116908177595,0.920520846107115,0
57,3,Plane_0_4_5_.jpg,plane,line,arc,correct,2.13261795,y,y,0,4,5,NA,1.1525900430905907,0,0.5000000000000001,1.9963445149309045,0
57,10,Plane_0_1_2_.jpg,plane,line,arc,correct,2.169136047,y,y,0,1,2,NA,0.47054291469740406,0,0.2079116908177595,0.920520846107115,0
57,21,Plane_0_3_(Neg)1_.jpg,plane,line,arc,correct,1.828047991,y,y,0,3,-1,NA,0.8550332201079094,0,0.10452846326765282,1.7006985173291123,0
57,34,Plane_0_2_1_.jpg,plane,line,arc,correct,2.665543079,y,y,0,2,1,NA,0.634294745014242,0,0.10452846326765282,1.2616400240673993,0
57,36,Plane_0_6_3_.jpg,plane,line,arc,correct,5.092708111,y,y,0,6,3,NA,2.094395102393195,0,0.30901699437494756,3.9837762196554065,0
57,51,Plane_0_5_(Neg)2_.jpg,plane,line,arc,correct,2.04133606,y,y,0,5,-2,NA,1.5536984718136575,0,0.2079116908177595,3.039492864936619,0
57,55,Plane_0_0_(Neg)4_.jpg,plane,line,arc,correct,1.587977886,y,y,0,0,-4,NA,0.34906585039886595,0,0.4067366430758003,0.6377750441000712,0
58,3,Plane_0_5_(Neg)2_.jpg,plane,line,arc,correct,1.836071014,y,y,0,5,-2,NA,1.5536984718136575,0,0.2079116908177595,3.039492864936619,0
58,9,Plane_0_0_(Neg)4_.jpg,plane,line,arc,correct,1.83586812,y,y,0,0,-4,NA,0.34906585039886595,0,0.4067366430758003,0.6377750441000712,0
58,12,Plane_0_6_3_.jpg,plane,line,arc,correct,2.569543123,y,y,0,6,3,NA,2.094395102393195,0,0.30901699437494756,3.9837762196554065,0
58,14,Plane_0_4_5_.jpg,plane,line,arc,correct,2.3701338769999998,y,y,0,4,5,NA,1.1525900430905907,0,0.5000000000000001,1.9963445149309045,0
58,34,Plane_0_1_2_.jpg,plane,line,arc,correct,1.503417969,y,y,0,1,2,NA,0.47054291469740406,0,0.2079116908177595,0.920520846107115,0
58,42,Plane_0_2_1_.jpg,plane,line,arc,correct,1.570080996,y,y,0,2,1,NA,0.634294745014242,0,0.10452846326765282,1.2616400240673993,0
58,53,Plane_0_3_(Neg)1_.jpg,plane,line,arc,correct,1.303555965,y,y,0,3,-1,NA,0.8550332201079094,0,0.10452846326765282,1.7006985173291123,0
59,1,Plane_0_3_(Neg)1_.jpg,plane,line,arc,correct,8.903020144,y,y,0,3,-1,NA,0.8550332201079094,0,0.10452846326765282,1.7006985173291123,0
59,14,Plane_0_2_1_.jpg,plane,line,arc,correct,2.336077929,y,y,0,2,1,NA,0.634294745014242,0,0.10452846326765282,1.2616400240673993,0
59,33,Plane_0_5_(Neg)2_.jpg,plane,line,arc,correct,2.169546127,y,y,0,5,-2,NA,1.5536984718136575,0,0.2079116908177595,3.039492864936619,0
59,37,Plane_0_4_5_.jpg,plane,line,arc,correct,1.969497919,y,y,0,4,5,NA,1.1525900430905907,0,0.5000000000000001,1.9963445149309045,0
59,44,Plane_0_0_(Neg)4_.jpg,plane,line,arc,correct,1.602757931,y,y,0,0,-4,NA,0.34906585039886595,0,0.4067366430758003,0.6377750441000712,0
59,46,Plane_0_6_3_.jpg,plane,line,arc,correct,1.936053038,y,y,0,6,3,NA,2.094395102393195,0,0.30901699437494756,3.9837762196554065,0
59,50,Plane_0_1_2_.jpg,plane,line,arc,correct,1.836214066,y,y,0,1,2,NA,0.47054291469740406,0,0.2079116908177595,0.920520846107115,0
61,9,Plane_0_1_2_.jpg,plane,line,arc,correct,2.50048399,y,y,0,1,2,NA,0.47054291469740406,0,0.2079116908177595,0.920520846107115,0
61,14,Plane_0_3_(Neg)1_.jpg,plane,line,arc,correct,1.667701006,y,y,0,3,-1,NA,0.8550332201079094,0,0.10452846326765282,1.7006985173291123,0
61,17,Plane_0_5_(Neg)2_.jpg,plane,line,arc,correct,1.983730078,y,y,0,5,-2,NA,1.5536984718136575,0,0.2079116908177595,3.039492864936619,0
61,21,Plane_0_2_1_.jpg,plane,line,arc,correct,1.629756927,y,y,0,2,1,NA,0.634294745014242,0,0.10452846326765282,1.2616400240673993,0
61,39,Plane_0_0_(Neg)4_.jpg,plane,line,arc,correct,1.421198845,y,y,0,0,-4,NA,0.34906585039886595,0,0.4067366430758003,0.6377750441000712,0
61,41,Plane_0_4_5_.jpg,plane,line,arc,correct,3.517838955,y,y,0,4,5,NA,1.1525900430905907,0,0.5000000000000001,1.9963445149309045,0
61,53,Plane_0_6_3_.jpg,plane,line,arc,correct,1.340191126,y,y,0,6,3,NA,2.094395102393195,0,0.30901699437494756,3.9837762196554065,0
62,4,Plane_0_6_3_.jpg,plane,line,arc,correct,3.33614707,y,y,0,6,3,NA,2.094395102393195,0,0.30901699437494756,3.9837762196554065,0
62,11,Plane_0_0_(Neg)4_.jpg,plane,line,arc,correct,2.433798075,y,y,0,0,-4,NA,0.34906585039886595,0,0.4067366430758003,0.6377750441000712,0
62,27,Plane_0_2_1_.jpg,plane,line,arc,correct,2.802819967,y,y,0,2,1,NA,0.634294745014242,0,0.10452846326765282,1.2616400240673993,0
62,41,Plane_0_1_2_.jpg,plane,line,arc,correct,2.169502974,y,y,0,1,2,NA,0.47054291469740406,0,0.2079116908177595,0.920520846107115,0
62,42,Plane_0_4_5_.jpg,plane,line,arc,correct,2.502582788,y,y,0,4,5,NA,1.1525900430905907,0,0.5000000000000001,1.9963445149309045,0
62,53,Plane_0_5_(Neg)2_.jpg,plane,line,arc,correct,3.702587843,y,y,0,5,-2,NA,1.5536984718136575,0,0.2079116908177595,3.039492864936619,0
62,56,Plane_0_3_(Neg)1_.jpg,plane,line,arc,correct,2.402827024,y,y,0,3,-1,NA,0.8550332201079094,0,0.10452846326765282,1.7006985173291123,0
63,15,Plane_0_0_(Neg)4_.jpg,plane,line,arc,correct,1.792500973,y,y,0,0,-4,NA,0.34906585039886595,0,0.4067366430758003,0.6377750441000712,0
63,42,Plane_0_1_2_.jpg,plane,line,arc,correct,1.389033079,y,y,0,1,2,NA,0.47054291469740406,0,0.2079116908177595,0.920520846107115,0
63,29,Plane_0_2_1_.jpg,plane,line,arc,correct,2.070872068,y,y,0,2,1,NA,0.634294745014242,0,0.10452846326765282,1.2616400240673993,0
63,55,Plane_0_3_(Neg)1_.jpg,plane,line,arc,correct,2.070549965,y,y,0,3,-1,NA,0.8550332201079094,0,0.10452846326765282,1.7006985173291123,0
63,13,Plane_0_4_5_.jpg,plane,line,arc,correct,1.611931086,y,y,0,4,5,NA,1.1525900430905907,0,0.5000000000000001,1.9963445149309045,0
63,44,Plane_0_5_(Neg)2_.jpg,plane,line,arc,correct,1.562573195,y,y,0,5,-2,NA,1.5536984718136575,0,0.2079116908177595,3.039492864936619,0
63,11,Plane_0_6_3_.jpg,plane,line,arc,correct,2.289966822,y,y,0,6,3,NA,2.094395102393195,0,0.30901699437494756,3.9837762196554065,0
65,8,Plane_0_1_2_.jpg,plane,line,arc,correct,1.917254925,y,y,0,1,2,NA,0.47054291469740406,0,0.2079116908177595,0.920520846107115,0
65,10,Plane_0_5_(Neg)2_.jpg,plane,line,arc,correct,1.894221067,y,y,0,5,-2,NA,1.5536984718136575,0,0.2079116908177595,3.039492864936619,0
65,18,Plane_0_6_3_.jpg,plane,line,arc,correct,1.850888014,y,y,0,6,3,NA,2.094395102393195,0,0.30901699437494756,3.9837762196554065,0
65,23,Plane_0_0_(Neg)4_.jpg,plane,line,arc,correct,1.746443033,y,y,0,0,-4,NA,0.34906585039886595,0,0.4067366430758003,0.6377750441000712,0
65,49,Plane_0_4_5_.jpg,plane,line,arc,correct,1.588579893,y,y,0,4,5,NA,1.1525900430905907,0,0.5000000000000001,1.9963445149309045,0
65,51,Plane_0_2_1_.jpg,plane,line,arc,correct,1.424216986,y,y,0,2,1,NA,0.634294745014242,0,0.10452846326765282,1.2616400240673993,0
65,54,Plane_0_3_(Neg)1_.jpg,plane,line,arc,correct,1.673153877,y,y,0,3,-1,NA,0.8550332201079094,0,0.10452846326765282,1.7006985173291123,0
67,6,Plane_0_5_(Neg)2_.jpg,plane,line,arc,correct,1.701668978,y,y,0,5,-2,NA,1.5536984718136575,0,0.2079116908177595,3.039492864936619,0
67,12,Plane_0_3_(Neg)1_.jpg,plane,line,arc,correct,1.462658882,y,y,0,3,-1,NA,0.8550332201079094,0,0.10452846326765282,1.7006985173291123,0
67,27,Plane_0_0_(Neg)4_.jpg,plane,line,arc,correct,1.296720982,y,y,0,0,-4,NA,0.34906585039886595,0,0.4067366430758003,0.6377750441000712,0
67,32,Plane_0_6_3_.jpg,plane,line,arc,correct,1.441771984,y,y,0,6,3,NA,2.094395102393195,0,0.30901699437494756,3.9837762196554065,0
67,40,Plane_0_4_5_.jpg,plane,line,arc,correct,1.385348082,y,y,0,4,5,NA,1.1525900430905907,0,0.5000000000000001,1.9963445149309045,0
67,42,Plane_0_1_2_.jpg,plane,line,arc,correct,1.330435991,y,y,0,1,2,NA,0.47054291469740406,0,0.2079116908177595,0.920520846107115,0
67,46,Plane_0_2_1_.jpg,plane,line,arc,correct,1.457921982,y,y,0,2,1,NA,0.634294745014242,0,0.10452846326765282,1.2616400240673993,0
69,10,Plane_0_4_5_.jpg,plane,line,arc,correct,1.546360016,y,y,0,4,5,NA,1.1525900430905907,0,0.5000000000000001,1.9963445149309045,0
69,17,Plane_0_1_2_.jpg,plane,line,arc,correct,1.552663803,y,y,0,1,2,NA,0.47054291469740406,0,0.2079116908177595,0.920520846107115,0
69,18,Plane_0_2_1_.jpg,plane,line,arc,correct,1.367805958,y,y,0,2,1,NA,0.634294745014242,0,0.10452846326765282,1.2616400240673993,0
69,36,Plane_0_6_3_.jpg,plane,line,arc,correct,1.550584078,y,y,0,6,3,NA,2.094395102393195,0,0.30901699437494756,3.9837762196554065,0
69,41,Plane_0_5_(Neg)2_.jpg,plane,line,arc,correct,1.665555,y,y,0,5,-2,NA,1.5536984718136575,0,0.2079116908177595,3.039492864936619,0
69,48,Plane_0_0_(Neg)4_.jpg,plane,line,arc,correct,1.366518021,y,y,0,0,-4,NA,0.34906585039886595,0,0.4067366430758003,0.6377750441000712,0
69,52,Plane_0_3_(Neg)1_.jpg,plane,line,arc,correct,1.432631969,y,y,0,3,-1,NA,0.8550332201079094,0,0.10452846326765282,1.7006985173291123,0
70,6,Plane_0_4_5_.jpg,plane,line,arc,correct,1.643938065,y,y,0,4,5,NA,1.1525900430905907,0,0.5000000000000001,1.9963445149309045,0
70,11,Plane_0_3_(Neg)1_.jpg,plane,line,arc,correct,1.592265129,y,y,0,3,-1,NA,0.8550332201079094,0,0.10452846326765282,1.7006985173291123,0
70,12,Plane_0_2_1_.jpg,plane,line,arc,correct,1.200706005,y,y,0,2,1,NA,0.634294745014242,0,0.10452846326765282,1.2616400240673993,0
70,14,Plane_0_6_3_.jpg,plane,line,arc,correct,1.835430145,y,y,0,6,3,NA,2.094395102393195,0,0.30901699437494756,3.9837762196554065,0
70,16,Plane_0_0_(Neg)4_.jpg,plane,line,arc,correct,1.540477037,y,y,0,0,-4,NA,0.34906585039886595,0,0.4067366430758003,0.6377750441000712,0
70,38,Plane_0_1_2_.jpg,plane,line,arc,correct,1.380638123,y,y,0,1,2,NA,0.47054291469740406,0,0.2079116908177595,0.920520846107115,0
70,52,Plane_0_5_(Neg)2_.jpg,plane,line,arc,correct,1.931607962,y,y,0,5,-2,NA,1.5536984718136575,0,0.2079116908177595,3.039492864936619,0
1,7,gPlane_0_4_(Neg)3_.jpg,plane,curve,geo,correct,6.502955198,n,n,0,4,-3,NA,1.1525900430905907,0.342695988967358,0.2817548262194928,2.3051800861811813,0.047087607076003464
1,11,gPlane_0_2_4_.jpg,plane,curve,geo,incorrect,8.203088999,n,y,0,2,4,NA,0.634294745014242,0.43026446619453307,0.39630938355067874,1.268589490028484,0.0327951558381185
1,19,gPlane_0_1_2_.jpg,plane,curve,geo,incorrect,3.700459957,n,y,0,1,2,NA,0.47054291469740406,0.21240824420126994,0.20500691887929567,0.9410858293948081,0.012342575548063017
1,26,gPlane_0_6_(Neg)2_.jpg,plane,curve,geo,correct,4.069594145,n,n,0,6,-2,NA,2.094395102393195,0.28017349319982504,0.13826119049367094,4.18879020478639,0.06601485571451364
1,36,gPlane_0_5_1_.jpg,plane,curve,geo,correct,10.36958122,n,n,0,5,1,NA,1.5536984718136575,0.12231832938060866,0.08701101292825919,3.107396943627315,0.022528520596616076
1,38,gPlane_0_6_(Neg)5_.jpg,plane,curve,geo,correct,4.702965975,n,n,0,6,-5,NA,2.094395102393195,0.7137243789447656,0.32732683535398877,4.18879020478639,0.15628705155964268
1,53,gPlane_0_4_(Neg)4_.jpg,plane,curve,geo,correct,5.202947855,n,n,0,4,-4,NA,1.1525900430905907,0.45797281194869005,0.3707210106353981,2.3051800861811813,0.06195586963972593
2,4,gPlane_0_5_1_.jpg,plane,curve,geo,incorrect,6.071182966,n,y,0,5,1,NA,1.5536984718136575,0.12231832938060866,0.08701101292825919,3.107396943627315,0.022528520596616076
2,5,gPlane_0_4_(Neg)4_.jpg,plane,curve,geo,correct,8.344163179,n,n,0,4,-4,NA,1.1525900430905907,0.45797281194869005,0.3707210106353981,2.3051800861811813,0.06195586963972593
2,13,gPlane_0_4_(Neg)3_.jpg,plane,curve,geo,correct,4.662571907,n,n,0,4,-3,NA,1.1525900430905907,0.342695988967358,0.2817548262194928,2.3051800861811813,0.047087607076003464
2,22,gPlane_0_6_(Neg)2_.jpg,plane,curve,geo,correct,9.954390049,n,n,0,6,-2,NA,2.094395102393195,0.28017349319982504,0.13826119049367094,4.18879020478639,0.06601485571451364
2,29,gPlane_0_1_2_.jpg,plane,curve,geo,incorrect,4.925115108,n,y,0,1,2,NA,0.47054291469740406,0.21240824420126994,0.20500691887929567,0.9410858293948081,0.012342575548063017
2,45,gPlane_0_6_(Neg)5_.jpg,plane,curve,geo,correct,4.492915869,n,n,0,6,-5,NA,2.094395102393195,0.7137243789447656,0.32732683535398877,4.18879020478639,0.15628705155964268
2,46,gPlane_0_2_4_.jpg,plane,curve,geo,correct,5.064084053,n,n,0,2,4,NA,0.634294745014242,0.43026446619453307,0.39630938355067874,1.268589490028484,0.0327951558381185
3,21,gPlane_0_4_(Neg)3_.jpg,plane,curve,geo,incorrect,2.702995777,n,y,0,4,-3,NA,1.1525900430905907,0.342695988967358,0.2817548262194928,2.3051800861811813,0.047087607076003464
3,22,gPlane_0_4_(Neg)4_.jpg,plane,curve,geo,incorrect,4.669713974,n,y,0,4,-4,NA,1.1525900430905907,0.45797281194869005,0.3707210106353981,2.3051800861811813,0.06195586963972593
3,28,gPlane_0_2_4_.jpg,plane,curve,geo,incorrect,3.400488853,n,y,0,2,4,NA,0.634294745014242,0.43026446619453307,0.39630938355067874,1.268589490028484,0.0327951558381185
3,32,gPlane_0_6_(Neg)2_.jpg,plane,curve,geo,correct,4.202883005,n,n,0,6,-2,NA,2.094395102393195,0.28017349319982504,0.13826119049367094,4.18879020478639,0.06601485571451364
3,36,gPlane_0_5_1_.jpg,plane,curve,geo,incorrect,3.802964926,n,y,0,5,1,NA,1.5536984718136575,0.12231832938060866,0.08701101292825919,3.107396943627315,0.022528520596616076
3,43,gPlane_0_6_(Neg)5_.jpg,plane,curve,geo,correct,5.369601011,n,n,0,6,-5,NA,2.094395102393195,0.7137243789447656,0.32732683535398877,4.18879020478639,0.15628705155964268
3,46,gPlane_0_1_2_.jpg,plane,curve,geo,incorrect,2.669702053,n,y,0,1,2,NA,0.47054291469740406,0.21240824420126994,0.20500691887929567,0.9410858293948081,0.012342575548063017
4,5,gPlane_0_6_(Neg)5_.jpg,plane,curve,geo,incorrect,6.023107052,n,y,0,6,-5,NA,2.094395102393195,0.7137243789447656,0.32732683535398877,4.18879020478639,0.15628705155964268
4,23,gPlane_0_4_(Neg)4_.jpg,plane,curve,geo,incorrect,10.42649817,n,y,0,4,-4,NA,1.1525900430905907,0.45797281194869005,0.3707210106353981,2.3051800861811813,0.06195586963972593
4,26,gPlane_0_4_(Neg)3_.jpg,plane,curve,geo,incorrect,5.666410923,n,y,0,4,-3,NA,1.1525900430905907,0.342695988967358,0.2817548262194928,2.3051800861811813,0.047087607076003464
4,29,gPlane_0_1_2_.jpg,plane,curve,geo,incorrect,5.578381062,n,y,0,1,2,NA,0.47054291469740406,0.21240824420126994,0.20500691887929567,0.9410858293948081,0.012342575548063017
4,33,gPlane_0_2_4_.jpg,plane,curve,geo,incorrect,4.283380032,n,y,0,2,4,NA,0.634294745014242,0.43026446619453307,0.39630938355067874,1.268589490028484,0.0327951558381185
4,42,gPlane_0_5_1_.jpg,plane,curve,geo,incorrect,5.900885105,n,y,0,5,1,NA,1.5536984718136575,0.12231832938060866,0.08701101292825919,3.107396943627315,0.022528520596616076
4,50,gPlane_0_6_(Neg)2_.jpg,plane,curve,geo,correct,3.620805979,n,n,0,6,-2,NA,2.094395102393195,0.28017349319982504,0.13826119049367094,4.18879020478639,0.06601485571451364
7,20,gPlane_0_4_(Neg)3_.jpg,plane,curve,geo,correct,8.535721064,n,n,0,4,-3,NA,1.1525900430905907,0.342695988967358,0.2817548262194928,2.3051800861811813,0.047087607076003464
7,26,gPlane_0_1_2_.jpg,plane,curve,geo,incorrect,9.94689393,n,y,0,1,2,NA,0.47054291469740406,0.21240824420126994,0.20500691887929567,0.9410858293948081,0.012342575548063017
7,31,gPlane_0_2_4_.jpg,plane,curve,geo,incorrect,1.759550095,n,y,0,2,4,NA,0.634294745014242,0.43026446619453307,0.39630938355067874,1.268589490028484,0.0327951558381185
7,38,gPlane_0_4_(Neg)4_.jpg,plane,curve,geo,correct,2.316725969,n,n,0,4,-4,NA,1.1525900430905907,0.45797281194869005,0.3707210106353981,2.3051800861811813,0.06195586963972593
7,42,gPlane_0_6_(Neg)5_.jpg,plane,curve,geo,correct,2.677680016,n,n,0,6,-5,NA,2.094395102393195,0.7137243789447656,0.32732683535398877,4.18879020478639,0.15628705155964268
7,46,gPlane_0_6_(Neg)2_.jpg,plane,curve,geo,correct,3.434859991,n,n,0,6,-2,NA,2.094395102393195,0.28017349319982504,0.13826119049367094,4.18879020478639,0.06601485571451364
7,52,gPlane_0_5_1_.jpg,plane,curve,geo,incorrect,5.219218969,n,y,0,5,1,NA,1.5536984718136575,0.12231832938060866,0.08701101292825919,3.107396943627315,0.022528520596616076
9,17,gPlane_0_1_2_.jpg,plane,curve,geo,incorrect,2.495085955,n,y,0,1,2,NA,0.47054291469740406,0.21240824420126994,0.20500691887929567,0.9410858293948081,0.012342575548063017
9,37,gPlane_0_4_(Neg)4_.jpg,plane,curve,geo,correct,2.837424994,n,n,0,4,-4,NA,1.1525900430905907,0.45797281194869005,0.3707210106353981,2.3051800861811813,0.06195586963972593
9,42,gPlane_0_5_1_.jpg,plane,curve,geo,incorrect,3.475873947,n,y,0,5,1,NA,1.5536984718136575,0.12231832938060866,0.08701101292825919,3.107396943627315,0.022528520596616076
9,48,gPlane_0_2_4_.jpg,plane,curve,geo,incorrect,4.343664885,n,y,0,2,4,NA,0.634294745014242,0.43026446619453307,0.39630938355067874,1.268589490028484,0.0327951558381185
9,52,gPlane_0_4_(Neg)3_.jpg,plane,curve,geo,incorrect,9.897603989,n,y,0,4,-3,NA,1.1525900430905907,0.342695988967358,0.2817548262194928,2.3051800861811813,0.047087607076003464
9,54,gPlane_0_6_(Neg)2_.jpg,plane,curve,geo,correct,2.293780088,n,n,0,6,-2,NA,2.094395102393195,0.28017349319982504,0.13826119049367094,4.18879020478639,0.06601485571451364
9,56,gPlane_0_6_(Neg)5_.jpg,plane,curve,geo,correct,2.245014906,n,n,0,6,-5,NA,2.094395102393195,0.7137243789447656,0.32732683535398877,4.18879020478639,0.15628705155964268
10,3,gPlane_0_6_(Neg)2_.jpg,plane,curve,geo,correct,3.036226988,n,n,0,6,-2,NA,2.094395102393195,0.28017349319982504,0.13826119049367094,4.18879020478639,0.06601485571451364
10,10,gPlane_0_5_1_.jpg,plane,curve,geo,correct,2.002861977,n,n,0,5,1,NA,1.5536984718136575,0.12231832938060866,0.08701101292825919,3.107396943627315,0.022528520596616076
10,16,gPlane_0_6_(Neg)5_.jpg,plane,curve,geo,correct,3.03636384,n,n,0,6,-5,NA,2.094395102393195,0.7137243789447656,0.32732683535398877,4.18879020478639,0.15628705155964268
10,20,gPlane_0_4_(Neg)4_.jpg,plane,curve,geo,correct,2.169589996,n,n,0,4,-4,NA,1.1525900430905907,0.45797281194869005,0.3707210106353981,2.3051800861811813,0.06195586963972593
10,35,gPlane_0_4_(Neg)3_.jpg,plane,curve,geo,correct,2.369564056,n,n,0,4,-3,NA,1.1525900430905907,0.342695988967358,0.2817548262194928,2.3051800861811813,0.047087607076003464
10,47,gPlane_0_2_4_.jpg,plane,curve,geo,correct,5.00298214,n,n,0,2,4,NA,0.634294745014242,0.43026446619453307,0.39630938355067874,1.268589490028484,0.0327951558381185
10,50,gPlane_0_1_2_.jpg,plane,curve,geo,incorrect,2.902801037,n,y,0,1,2,NA,0.47054291469740406,0.21240824420126994,0.20500691887929567,0.9410858293948081,0.012342575548063017
11,6,gPlane_0_1_2_.jpg,plane,curve,geo,incorrect,2.607858896,n,y,0,1,2,NA,0.47054291469740406,0.21240824420126994,0.20500691887929567,0.9410858293948081,0.012342575548063017
11,17,gPlane_0_4_(Neg)3_.jpg,plane,curve,geo,correct,3.269397974,n,n,0,4,-3,NA,1.1525900430905907,0.342695988967358,0.2817548262194928,2.3051800861811813,0.047087607076003464
11,19,gPlane_0_6_(Neg)5_.jpg,plane,curve,geo,correct,3.376322031,n,n,0,6,-5,NA,2.094395102393195,0.7137243789447656,0.32732683535398877,4.18879020478639,0.15628705155964268
11,33,gPlane_0_6_(Neg)2_.jpg,plane,curve,geo,correct,2.245700836,n,n,0,6,-2,NA,2.094395102393195,0.28017349319982504,0.13826119049367094,4.18879020478639,0.06601485571451364
11,34,gPlane_0_4_(Neg)4_.jpg,plane,curve,geo,correct,2.510995865,n,n,0,4,-4,NA,1.1525900430905907,0.45797281194869005,0.3707210106353981,2.3051800861811813,0.06195586963972593
11,38,gPlane_0_5_1_.jpg,plane,curve,geo,correct,3.777808905,n,n,0,5,1,NA,1.5536984718136575,0.12231832938060866,0.08701101292825919,3.107396943627315,0.022528520596616076
11,48,gPlane_0_2_4_.jpg,plane,curve,geo,correct,2.443671942,n,n,0,2,4,NA,0.634294745014242,0.43026446619453307,0.39630938355067874,1.268589490028484,0.0327951558381185
12,5,gPlane_0_4_(Neg)3_.jpg,plane,curve,geo,incorrect,2.836115837,n,y,0,4,-3,NA,1.1525900430905907,0.342695988967358,0.2817548262194928,2.3051800861811813,0.047087607076003464
12,18,gPlane_0_6_(Neg)5_.jpg,plane,curve,geo,correct,3.702872992,n,n,0,6,-5,NA,2.094395102393195,0.7137243789447656,0.32732683535398877,4.18879020478639,0.15628705155964268
12,21,gPlane_0_5_1_.jpg,plane,curve,geo,incorrect,1.836257935,n,y,0,5,1,NA,1.5536984718136575,0.12231832938060866,0.08701101292825919,3.107396943627315,0.022528520596616076
12,28,gPlane_0_6_(Neg)2_.jpg,plane,curve,geo,incorrect,2.90301609,n,y,0,6,-2,NA,2.094395102393195,0.28017349319982504,0.13826119049367094,4.18879020478639,0.06601485571451364
12,30,gPlane_0_2_4_.jpg,plane,curve,geo,incorrect,1.869583845,n,y,0,2,4,NA,0.634294745014242,0.43026446619453307,0.39630938355067874,1.268589490028484,0.0327951558381185
12,34,gPlane_0_4_(Neg)4_.jpg,plane,curve,geo,incorrect,2.402956963,n,y,0,4,-4,NA,1.1525900430905907,0.45797281194869005,0.3707210106353981,2.3051800861811813,0.06195586963972593
12,38,gPlane_0_1_2_.jpg,plane,curve,geo,incorrect,1.636299849,n,y,0,1,2,NA,0.47054291469740406,0.21240824420126994,0.20500691887929567,0.9410858293948081,0.012342575548063017
13,1,gPlane_0_6_(Neg)2_.jpg,plane,curve,geo,correct,6.013960838,n,n,0,6,-2,NA,2.094395102393195,0.28017349319982504,0.13826119049367094,4.18879020478639,0.06601485571451364
13,5,gPlane_0_4_(Neg)4_.jpg,plane,curve,geo,correct,3.563452005,n,n,0,4,-4,NA,1.1525900430905907,0.45797281194869005,0.3707210106353981,2.3051800861811813,0.06195586963972593
13,24,gPlane_0_4_(Neg)3_.jpg,plane,curve,geo,correct,3.523772001,n,n,0,4,-3,NA,1.1525900430905907,0.342695988967358,0.2817548262194928,2.3051800861811813,0.047087607076003464
13,27,gPlane_0_2_4_.jpg,plane,curve,geo,correct,3.344866037,n,n,0,2,4,NA,0.634294745014242,0.43026446619453307,0.39630938355067874,1.268589490028484,0.0327951558381185
13,30,gPlane_0_5_1_.jpg,plane,curve,geo,correct,4.071559906,n,n,0,5,1,NA,1.5536984718136575,0.12231832938060866,0.08701101292825919,3.107396943627315,0.022528520596616076
13,46,gPlane_0_6_(Neg)5_.jpg,plane,curve,geo,correct,3.370345116,n,n,0,6,-5,NA,2.094395102393195,0.7137243789447656,0.32732683535398877,4.18879020478639,0.15628705155964268
13,50,gPlane_0_1_2_.jpg,plane,curve,geo,incorrect,3.124799013,n,y,0,1,2,NA,0.47054291469740406,0.21240824420126994,0.20500691887929567,0.9410858293948081,0.012342575548063017
14,1,gPlane_0_1_2_.jpg,plane,curve,geo,incorrect,2.63596797,n,y,0,1,2,NA,0.47054291469740406,0.21240824420126994,0.20500691887929567,0.9410858293948081,0.012342575548063017
14,2,gPlane_0_4_(Neg)4_.jpg,plane,curve,geo,correct,3.169564962,n,n,0,4,-4,NA,1.1525900430905907,0.45797281194869005,0.3707210106353981,2.3051800861811813,0.06195586963972593
14,15,gPlane_0_4_(Neg)3_.jpg,plane,curve,geo,correct,1.536189079,n,n,0,4,-3,NA,1.1525900430905907,0.342695988967358,0.2817548262194928,2.3051800861811813,0.047087607076003464
14,24,gPlane_0_2_4_.jpg,plane,curve,geo,correct,2.169415951,n,n,0,2,4,NA,0.634294745014242,0.43026446619453307,0.39630938355067874,1.268589490028484,0.0327951558381185
14,28,gPlane_0_6_(Neg)5_.jpg,plane,curve,geo,correct,1.702844143,n,n,0,6,-5,NA,2.094395102393195,0.7137243789447656,0.32732683535398877,4.18879020478639,0.15628705155964268
14,33,gPlane_0_5_1_.jpg,plane,curve,geo,correct,1.569513083,n,n,0,5,1,NA,1.5536984718136575,0.12231832938060866,0.08701101292825919,3.107396943627315,0.022528520596616076
14,45,gPlane_0_6_(Neg)2_.jpg,plane,curve,geo,correct,3.802973032,n,n,0,6,-2,NA,2.094395102393195,0.28017349319982504,0.13826119049367094,4.18879020478639,0.06601485571451364
16,4,gPlane_0_2_4_.jpg,plane,curve,geo,correct,3.662508011,n,n,0,2,4,NA,0.634294745014242,0.43026446619453307,0.39630938355067874,1.268589490028484,0.0327951558381185
16,16,gPlane_0_6_(Neg)5_.jpg,plane,curve,geo,correct,2.228090048,n,n,0,6,-5,NA,2.094395102393195,0.7137243789447656,0.32732683535398877,4.18879020478639,0.15628705155964268
16,17,gPlane_0_6_(Neg)2_.jpg,plane,curve,geo,correct,2.601433992,n,n,0,6,-2,NA,2.094395102393195,0.28017349319982504,0.13826119049367094,4.18879020478639,0.06601485571451364
16,18,gPlane_0_5_1_.jpg,plane,curve,geo,incorrect,2.196738958,n,y,0,5,1,NA,1.5536984718136575,0.12231832938060866,0.08701101292825919,3.107396943627315,0.022528520596616076
16,23,gPlane_0_4_(Neg)3_.jpg,plane,curve,geo,correct,2.412746906,n,n,0,4,-3,NA,1.1525900430905907,0.342695988967358,0.2817548262194928,2.3051800861811813,0.047087607076003464
16,29,gPlane_0_4_(Neg)4_.jpg,plane,curve,geo,correct,2.087182999,n,n,0,4,-4,NA,1.1525900430905907,0.45797281194869005,0.3707210106353981,2.3051800861811813,0.06195586963972593
16,54,gPlane_0_1_2_.jpg,plane,curve,geo,incorrect,3.303119183,n,y,0,1,2,NA,0.47054291469740406,0.21240824420126994,0.20500691887929567,0.9410858293948081,0.012342575548063017
19,3,gPlane_0_1_2_.jpg,plane,curve,geo,incorrect,2.669656038,n,y,0,1,2,NA,0.47054291469740406,0.21240824420126994,0.20500691887929567,0.9410858293948081,0.012342575548063017
19,6,gPlane_0_4_(Neg)3_.jpg,plane,curve,geo,incorrect,2.636343956,n,y,0,4,-3,NA,1.1525900430905907,0.342695988967358,0.2817548262194928,2.3051800861811813,0.047087607076003464
19,12,gPlane_0_6_(Neg)5_.jpg,plane,curve,geo,correct,2.736073971,n,n,0,6,-5,NA,2.094395102393195,0.7137243789447656,0.32732683535398877,4.18879020478639,0.15628705155964268
19,16,gPlane_0_5_1_.jpg,plane,curve,geo,incorrect,1.802934885,n,y,0,5,1,NA,1.5536984718136575,0.12231832938060866,0.08701101292825919,3.107396943627315,0.022528520596616076
